"Time (s)","Acceleration x (m/s^2)","Acceleration y (m/s^2)","Acceleration z (m/s^2)"
2.373807300E-2,-9.619147182E-1,8.235198021E0,5.084748268E0
4.346312500E-2,-9.990034699E-1,8.247162819E0,5.193920612E0
6.322395800E-2,-1.001396298E0,8.266304970E0,5.339882851E0
8.299260400E-2,-9.116654396E-1,8.216055870E0,5.389235020E0
1.027319270E-1,-8.961120844E-1,8.193324089E0,5.336293697E0
1.224927600E-1,-9.212366939E-1,8.210073471E0,5.288437366E0
1.422790620E-1,-9.308080077E-1,8.199305534E0,5.248955727E0
1.620331250E-1,-9.607182741E-1,8.212466240E0,5.207081318E0
1.817939580E-1,-9.714859724E-1,8.193324089E0,5.161617756E0
2.015522910E-1,-9.571290612E-1,8.201698303E0,5.161617756E0
2.213109370E-1,-9.798609018E-1,8.230412483E0,5.244169712E0
2.410717710E-1,-9.511470199E-1,8.213663101E0,5.361418247E0
2.608486460E-1,-9.296116233E-1,8.207680702E0,5.407180786E0
2.805817180E-1,-9.643075466E-1,8.211270332E0,5.370092392E0
3.003425520E-1,-9.607182741E-1,8.226823807E0,5.302793980E0
3.201061460E-1,-9.128618240E-1,8.214859009E0,5.314758301E0
3.398751560E-1,-9.164510965E-1,8.213663101E0,5.309972763E0
3.596359890E-1,-9.571290612E-1,8.182556152E0,5.292026520E0
3.793949480E-1,-1.015753269E0,8.181359291E0,5.315954685E0
3.991415100E-1,-9.966106415E-1,8.183753014E0,5.320740223E0
4.189023430E-1,-9.367900491E-1,8.171788216E0,5.341079235E0
4.386730210E-1,-9.451649189E-1,8.170592308E0,5.286044121E0
4.584319270E-1,-9.332008362E-1,8.202895164E0,5.164010525E0
4.781927600E-1,-9.607182741E-1,8.234002113E0,5.140082359E0
4.979322390E-1,-9.655039310E-1,8.214859009E0,5.232205868E0
5.176984890E-1,-9.236295223E-1,8.231609344E0,5.338686466E0
5.374593230E-1,-1.042074203E0,8.285447121E0,5.315954685E0
5.572028640E-1,-1.160818100E0,8.381160736E0,5.097011566E0
5.769917180E-1,-1.329512119E0,8.481958389E0,4.727918625E0
5.967525520E-1,-1.321137190E0,8.565707207E0,4.706383228E0
6.165114060E-1,-1.106979609E0,8.576474190E0,4.799703121E0
6.362398430E-1,-6.529414654E-1,7.645965576E0,5.444269657E0
6.560006770E-1,-6.062814593E-1,7.316354275E0,5.705386639E0
6.757838020E-1,-8.315058947E-1,7.950153351E0,5.608178139E0
6.955347910E-1,-1.093819022E0,8.054241180E0,5.663512230E0
7.152956250E-1,-6.421737671E-1,7.929814339E0,5.887240887E0
7.350407810E-1,-3.834498227E-1,7.601399422E0,6.425027847E0
7.547895830E-1,-5.162515044E-1,7.517650604E0,6.892226696E0
7.745504160E-1,-6.936194897E-1,7.850552082E0,6.643074036E0
7.943398430E-1,-5.512465239E-1,7.874480247E0,6.216852188E0
8.140610930E-1,-5.584250093E-1,7.720143318E0,6.275476456E0
8.338219270E-1,-8.518448472E-1,8.154739380E0,5.597410202E0
8.535877600E-1,-9.343972206E-1,8.304590225E0,5.023731232E0
8.733386460E-1,-7.474579811E-1,8.019545555E0,5.143671513E0
8.930994790E-1,-6.433702111E-1,7.971688747E0,5.325525761E0
9.128503640E-1,-6.397809386E-1,7.892426491E0,5.551946640E0
9.326293750E-1,-8.338986635E-1,8.096115112E0,5.490929604E0
9.523902080E-1,-7.666005492E-1,8.097311974E0,5.368896008E0
9.721234370E-1,-6.302096844E-1,8.000402451E0,5.626124382E0
9.918971350E-1,-6.278168559E-1,7.758428097E0,6.005984783E0
1.011657968E0,-8.506484628E-1,8.044670105E0,5.949753284E0
1.031400052E0,-7.881359458E-1,8.184948921E0,5.680262089E0
1.051178177E0,-6.433702111E-1,8.039883614E0,5.494519234E0
1.070938437E0,-6.385845542E-1,8.047062874E0,5.507679462E0
1.090707552E0,-7.067800164E-1,8.091329575E0,5.478965759E0
1.110774531E0,-6.996015310E-1,8.023134232E0,5.616552830E0
1.130534791E0,-7.175477147E-1,8.049455643E0,5.620141983E0
1.149942864E0,-7.725825906E-1,8.086544037E0,5.471786976E0
1.169731146E0,-9.104689956E-1,8.223234177E0,5.573482037E0
1.189491406E0,-9.559326172E-1,8.245965958E0,5.603392601E0
1.209252031E0,-7.414759398E-1,8.155936241E0,5.651547909E0
1.229006093E0,-6.720840335E-1,7.823034763E0,5.633601665E0
1.248766354E0,-5.368895531E-1,7.549953461E0,5.604588985E0
1.268510833E0,-6.960122585E-1,8.002795219E0,5.416752338E0
1.288250729E0,-9.499505758E-1,8.184948921E0,5.368896008E0
1.308010989E0,-8.338986635E-1,8.076972961E0,5.453841209E0
1.327783281E0,-7.438687682E-1,7.969295979E0,5.592624664E0
1.347533073E0,-7.725825906E-1,8.036294937E0,5.496912003E0
1.367293333E0,-8.422735929E-1,8.007580757E0,5.538786411E0
1.387080833E0,-8.482556343E-1,8.045866013E0,5.617749214E0
1.406860781E0,-7.905287743E-1,7.996813297E0,5.655137062E0
1.426621041E0,-8.338986635E-1,8.060222626E0,5.720939636E0
1.446336875E0,-8.147560954E-1,8.029116631E0,5.736493111E0
1.466095885E0,-7.689933777E-1,8.014759064E0,5.626124382E0
1.485856146E0,-8.012964725E-1,8.020741463E0,5.661119461E0
1.505639218E0,-7.486543655E-1,8.043473244E0,5.529214859E0
1.525398593E0,-7.402794957E-1,8.039883614E0,5.451447964E0
1.545158854E0,-7.654041648E-1,8.033902168E0,5.409573555E0
1.564888177E0,-8.027920127E-1,8.015955925E0,5.401198864E0
1.584680729E0,-8.434699774E-1,8.041080475E0,5.478965759E0
1.604440989E0,-8.315058947E-1,8.038687706E0,5.657529831E0
1.624164114E0,-7.929216027E-1,8.038687706E0,5.700600624E0
1.643916823E0,-8.279166222E-1,8.045866013E0,5.706583023E0
1.663677083E0,-7.654041648E-1,8.035098076E0,5.597410202E0
1.683438489E0,-7.701897621E-1,8.027919769E0,5.617749214E0
1.703175156E0,-7.773682475E-1,8.006384850E0,5.639584064E0
1.722935416E0,-7.666005492E-1,8.012366295E0,5.587839127E0
1.742715781E0,-7.881359458E-1,8.029116631E0,5.543571949E0
1.762487291E0,-7.857431173E-1,8.026723862E0,5.520840168E0
1.782247552E0,-7.247261405E-1,7.990831375E0,5.524429321E0
1.801961979E0,-7.725825906E-1,8.044670105E0,5.517251015E0
1.821738021E0,-7.546364665E-1,8.029116631E0,5.616552830E0
1.841498281E0,-7.594220638E-1,7.999206066E0,5.734100342E0
1.861252916E0,-6.732804775E-1,7.975277901E0,5.741278648E0
1.881013541E0,-8.243274093E-1,8.025527000E0,5.655137062E0
1.900773802E0,-7.905287743E-1,8.021938324E0,5.704190254E0
1.920512760E0,-7.283154130E-1,7.963313580E0,5.590231895E0
1.940284687E0,-7.031907439E-1,7.976474285E0,5.537590027E0
1.960044948E0,-7.378866673E-1,7.916653633E0,5.586642742E0
1.979789010E0,-7.821539044E-1,7.948956966E0,5.723332882E0
1.999541510E0,-7.163512707E-1,7.984848976E0,5.686244011E0
2.019301771E0,-7.857431173E-1,8.021938324E0,5.762814045E0
2.039034114E0,-7.402794957E-1,7.963313580E0,5.815456390E0
2.058814427E0,-6.756733060E-1,7.891230106E0,5.768796444E0
2.078574166E0,-5.679962635E-1,7.815855980E0,5.834599018E0
2.098326562E0,-5.991029739E-1,7.951349735E0,5.649155140E0
2.118057760E0,-8.012964725E-1,8.139185905E0,5.555535793E0
2.137817500E0,-7.319046259E-1,8.042277336E0,5.578267574E0
2.157603281E0,-6.936194897E-1,7.963313580E0,5.755635738E0
2.177350364E0,-6.457630396E-1,7.867301941E0,5.822634697E0
2.197110104E0,-6.278168559E-1,7.916653633E0,5.615356445E0
2.216881979E0,-6.278168559E-1,7.982456207E0,5.628517151E0
2.236664948E0,-6.768696904E-1,7.969295979E0,5.712564945E0
2.256424687E0,-7.390831113E-1,8.045866013E0,5.729314804E0
2.276137968E0,-6.493522525E-1,7.980063438E0,5.708975792E0
2.295892187E0,-6.708876491E-1,8.035098076E0,5.571089268E0
2.315651927E0,-6.720840335E-1,8.054241180E0,5.591428280E0
2.335407604E0,-6.744768620E-1,8.009973526E0,5.641976833E0
2.355142760E0,-7.115656137E-1,8.020741463E0,5.676672459E0
2.374902500E0,-7.079764009E-1,8.013563156E0,5.624927998E0
2.394690156E0,-7.079764009E-1,8.002795219E0,5.513661385E0
2.414458021E0,-7.067800164E-1,8.021938324E0,5.602196217E0
2.434217760E0,-6.553342938E-1,8.014759064E0,5.557928562E0
2.453934896E0,-6.242275834E-1,8.014759064E0,5.526822090E0
2.473708073E0,-5.835496187E-1,7.972885132E0,5.574678421E0
2.493467812E0,-6.326025128E-1,7.975277901E0,5.665904999E0
2.513229323E0,-6.852445602E-1,8.039883614E0,5.753242970E0
2.532969062E0,-6.517450809E-1,8.026723862E0,5.772385597E0
2.552728802E0,-6.314060688E-1,8.013563156E0,5.722136021E0
2.572508489E0,-5.751747489E-1,7.968099594E0,5.657529831E0
2.592218177E0,-5.476573110E-1,7.914260864E0,5.608178139E0
2.611977916E0,-5.596213937E-1,7.922635555E0,5.680262089E0
2.631760312E0,-6.218347549E-1,7.994420528E0,5.647958755E0
2.651533489E0,-6.385845542E-1,7.998009682E0,5.676672459E0
2.671293229E0,-6.026921868E-1,7.948956966E0,5.728118420E0
2.691010260E0,-6.182455420E-1,7.974081516E0,5.659923077E0
2.710773489E0,-5.919244885E-1,7.982456207E0,5.697011471E0
2.730533229E0,-6.326025128E-1,7.959724426E0,5.686244011E0
2.750606198E0,-5.787639618E-1,7.982456207E0,5.656333447E0
2.770048854E0,-5.560321808E-1,8.030312538E0,5.572285652E0
2.789808593E0,-6.421737671E-1,7.975277901E0,5.707779408E0
2.809540156E0,-5.931209326E-1,7.999206066E0,5.633601665E0
2.829287864E0,-5.991029739E-1,8.002795219E0,5.614160061E0
2.849047604E0,-5.907281041E-1,7.927421570E0,5.736493111E0
2.868834843E0,-6.038886309E-1,7.953742504E0,5.662315845E0
2.888569166E0,-5.739783049E-1,7.984848976E0,5.698207855E0
2.908328906E0,-5.991029739E-1,7.959724426E0,5.842973709E0
2.928075156E0,-6.457630396E-1,7.972885132E0,5.746064663E0
2.947850521E0,-5.859424472E-1,8.069794655E0,5.624927998E0
2.967610260E0,-6.182455420E-1,8.104490280E0,5.756832123E0
2.987356458E0,-7.259225845E-1,8.043473244E0,5.766403675E0
3.007110625E0,-6.804589629E-1,7.907082558E0,5.792724609E0
3.026870364E0,-5.198407173E-1,7.772785187E0,6.023931026E0
3.046674479E0,-3.487538993E-1,7.656733513E0,5.918646812E0
3.066739323E0,-3.104687333E-1,7.833802223E0,5.662315845E0
3.086498646E0,-5.126622319E-1,7.935796261E0,5.700600624E0
3.105910677E0,-5.787639618E-1,8.007580757E0,5.562714577E0
3.125657760E0,-6.565307379E-1,8.037490845E0,5.467001438E0
3.145417083E0,-6.469594240E-1,8.045866013E0,5.532804012E0
3.165161302E0,-6.086742878E-1,8.061419487E0,5.634798050E0
3.184909062E0,-5.632106066E-1,7.939385414E0,5.772385597E0
3.204668385E0,-5.234299302E-1,7.917850018E0,5.946164131E0
3.224455416E0,-4.660021961E-1,7.899903774E0,5.938985825E0
3.244193646E0,-4.001995921E-1,7.842176914E0,5.925825119E0
3.263952968E0,-3.008974493E-1,7.898707390E0,5.737689495E0
3.283714375E0,-3.128615618E-1,7.791927814E0,5.764010429E0
3.303462968E0,-3.176472187E-1,7.817052364E0,5.793920994E0
3.323222291E0,-3.487538993E-1,7.838587761E0,5.821438313E0
3.342978750E0,-3.559323549E-1,7.843373299E0,5.871687889E0
3.362757187E0,-3.451646566E-1,7.837391376E0,5.949753284E0
3.382516510E0,-3.702892959E-1,7.825427532E0,6.016752720E0
3.402279531E0,-3.858426511E-1,7.848159313E0,5.973681927E0
3.421992708E0,-3.930211067E-1,7.840980530E0,5.925825119E0
3.441752031E0,-2.841476798E-1,7.890033722E0,5.847759247E0
3.461538489E0,-3.080759048E-1,7.845766544E0,5.769992828E0
3.481287708E0,-2.168495506E-1,7.750053406E0,5.880062580E0
3.501047031E0,-1.893320978E-1,7.759624958E0,5.996413708E0
3.520817239E0,-1.606182158E-1,7.781160355E0,6.000002861E0
3.540571979E0,-2.036890239E-1,7.815855980E0,5.982056618E0
3.560331302E0,-2.455634177E-1,7.844570160E0,5.955735683E0
3.580057239E0,-2.216351926E-1,7.806284904E0,5.921039581E0
3.599811562E0,-1.450648755E-1,7.762017727E0,5.953342915E0
3.619570885E0,-1.857428551E-1,7.814659595E0,5.901896954E0
3.639352968E0,-2.108674943E-1,7.846962929E0,5.868098259E0
3.659096302E0,-1.606182158E-1,7.790731430E0,5.935396671E0
3.678855625E0,-1.331007630E-1,7.764410496E0,5.893223286E0
3.698606979E0,-1.630110443E-1,7.787142277E0,5.944967747E0
3.718421093E0,-2.168495506E-1,7.793124199E0,6.002395630E0
3.738180416E0,-2.096710801E-1,7.801498890E0,5.982056618E0
3.757886198E0,-2.599203587E-1,7.819445133E0,5.964110374E0
3.777636302E0,-1.749751568E-1,7.769196033E0,6.002395630E0
3.797395625E0,-1.677966863E-1,7.764410496E0,5.950950146E0
3.817197708E0,-1.677966863E-1,7.784749508E0,5.827420235E0
3.836980260E0,-1.917249113E-1,7.824231148E0,5.921039581E0
3.856739583E0,-1.390828192E-1,7.770392418E0,5.997610092E0
3.876471927E0,-1.414756328E-1,7.782356739E0,5.998806477E0
3.896207031E0,-2.132603228E-1,7.790731430E0,6.021538258E0
3.915966354E0,-2.192423791E-1,7.775177956E0,5.887240887E0
3.935715104E0,-1.462612897E-1,7.753642559E0,5.887240887E0
3.955494843E0,-1.474576890E-1,7.745267868E0,5.954539299E0
3.975254166E0,-1.893320978E-1,7.779963493E0,5.901896954E0
3.994969739E0,-2.168495506E-1,7.815855980E0,5.883651733E0
4.014756093E0,-1.917249113E-1,7.815855980E0,5.899504185E0
4.034515416E0,-1.965105534E-1,7.803892136E0,5.893223286E0
4.054304218E0,-1.965105534E-1,7.809874058E0,6.039484501E0
4.073996718E0,-1.582254022E-1,7.788338661E0,6.105287075E0
4.093755677E0,-9.002995491E-2,7.715357304E0,5.938985825E0
4.113528281E0,-1.163510010E-1,7.751249790E0,5.896812439E0
4.133285468E0,-1.067797095E-1,7.738089561E0,6.053841114E0
4.153044427E0,-1.390828192E-1,7.765606880E0,6.062216282E0
4.172809062E0,-1.594218016E-1,7.767999649E0,5.959324837E0
4.192566510E0,-1.773679852E-1,7.720143318E0,6.015556335E0
4.212325468E0,-1.295115203E-1,7.690232754E0,6.083751678E0
4.232095156E0,-3.499503061E-2,7.643572807E0,6.165107727E0
4.251844218E0,-2.691925503E-3,7.613363266E0,6.237191200E0
4.271603177E0,1.316052489E-2,7.637590885E0,6.209673882E0
4.291368646E0,4.666004330E-2,7.612166882E0,6.150750637E0
4.311121927E0,-2.542374097E-2,7.632805347E0,6.147161484E0
4.330880885E0,-6.011966988E-2,7.650751114E0,6.143572330E0
4.350627656E0,-1.199402362E-1,7.689036369E0,6.131608009E0
4.370727656E0,-8.045866340E-2,7.650751114E0,6.113661766E0
4.390486614E0,-6.131608039E-2,7.657929897E0,6.176174164E0
4.409888385E0,-3.499503061E-2,7.647161961E0,6.074180126E0
4.429638802E0,-8.763712645E-2,7.706982613E0,6.068198204E0
4.449397760E0,-5.653043464E-2,7.647161961E0,6.032305717E0
4.469175833E0,-3.619144112E-2,7.634001732E0,6.090929985E0
4.488919062E0,-7.477570791E-3,7.631608486E0,6.149554253E0
4.508678021E0,-4.576273263E-2,7.643572807E0,6.123233318E0
4.528463437E0,-6.969095767E-2,7.626822948E0,6.251548290E0
4.548200677E0,-9.840483218E-2,7.659126282E0,6.348457813E0
4.567959635E0,-1.106680464E-2,7.653144360E0,6.366403580E0
4.587723385E0,-4.695914313E-2,7.619345665E0,6.112465382E0
4.607457083E0,-4.336991161E-2,7.599006653E0,5.986842155E0
4.627216041E0,-6.131608039E-2,7.597810268E0,6.201299191E0
4.646980677E0,-4.217349738E-2,7.618149281E0,6.179763794E0
4.666773125E0,-2.662015148E-2,7.693821907E0,6.045466423E0
4.686532135E0,-4.576273263E-2,7.659126282E0,6.000002861E0
4.706598437E0,-1.115653589E-1,7.630412102E0,6.003592014E0
4.726006458E0,-1.522433460E-1,7.674679756E0,6.040680885E0
4.745765416E0,-2.156531364E-1,7.711768150E0,6.055037498E0
4.765551406E0,-1.175474152E-1,7.661519051E0,6.204888344E0
4.785287656E0,-1.247258782E-1,7.626822948E0,6.214459419E0
4.805046614E0,-1.211366430E-1,7.616952896E0,6.276672840E0
4.824782812E0,-4.695914313E-2,7.572685242E0,6.313761711E0
4.844547291E0,-7.088737190E-2,7.588238716E0,6.222834587E0
4.864306250E0,-9.601201117E-2,7.645965576E0,6.089733601E0
4.884078333E0,-1.462612897E-1,7.624131203E0,6.052644730E0
4.903837968E0,-1.498505175E-1,7.600203037E0,6.165107727E0
4.923596927E0,-1.618146300E-1,7.582256794E0,6.227620125E0
4.943329896E0,-2.335993052E-1,7.631608486E0,6.325725555E0
4.963082500E0,-1.809572130E-1,7.609774113E0,6.408277988E0
4.982841458E0,-1.522433460E-1,7.591827869E0,6.399903297E0
5.002587500E0,-1.259222925E-1,7.532007694E0,6.372385979E0
5.022399687E0,-9.122636169E-2,7.511668682E0,6.308976173E0
5.042158646E0,-9.481559694E-2,7.522436142E0,6.240780354E0
5.061891771E0,-1.534397453E-1,7.515257835E0,6.287440777E0
5.081626250E0,-2.144567221E-1,7.583453178E0,6.310172558E0
5.101384739E0,-2.084746659E-1,7.582256794E0,6.292226315E0
5.121163281E0,-1.450648755E-1,7.546364307E0,6.203691959E0
5.140896875E0,-1.163510010E-1,7.543971539E0,6.123233318E0
5.160655416E0,-1.785643846E-1,7.552346706E0,6.204888344E0
5.180442708E0,-2.120639086E-1,7.576274872E0,6.264708996E0
5.200185729E0,-2.324029058E-1,7.517650604E0,6.416653156E0
5.219944166E0,-1.307079345E-1,7.466204643E0,6.440880299E0
5.239687968E0,-9.601201117E-2,7.481758118E0,6.325725555E0
5.259438750E0,-4.217349738E-2,7.439883709E0,6.196513176E0
5.279197239E0,-1.223330572E-1,7.473383427E0,6.250351906E0
5.298939739E0,-1.283151209E-1,7.470990658E0,6.297011852E0
5.318696302E0,-1.331007630E-1,7.514061451E0,6.330511570E0
5.338454791E0,-1.677966863E-1,7.503293514E0,6.375975132E0
5.358207448E0,-1.402792335E-1,7.496115208E0,6.445665836E0
5.377952760E0,-9.601201117E-2,7.467401028E0,6.409474373E0
5.397711250E0,-8.524430543E-2,7.443472862E0,6.269494534E0
5.417481458E0,-2.422732860E-2,7.443472862E0,6.239583969E0
5.437248802E0,-1.007976532E-1,7.474579811E0,6.267101765E0
5.457007291E0,-1.259222925E-1,7.448258877E0,6.494719028E0
5.476765885E0,-1.594218016E-1,7.473383427E0,6.480361938E0
5.496549791E0,-1.295115203E-1,7.474579811E0,6.405885220E0
5.516308281E0,-1.055833027E-1,7.442276478E0,6.384349823E0
5.536022708E0,-1.271187067E-1,7.455437183E0,6.401099682E0
5.555773646E0,-1.223330572E-1,7.441080093E0,6.302993774E0
5.575532135E0,-1.773679852E-1,7.468597889E0,6.483951092E0
5.595299166E0,-1.342971772E-1,7.444669247E0,6.475576401E0
5.615064375E0,-9.481559694E-2,7.451848030E0,6.434898376E0
5.634822864E0,-1.091725305E-1,7.439883709E0,6.334100723E0
5.654552656E0,-1.091725305E-1,7.455437183E0,6.366403580E0
5.674312135E0,-1.498505175E-1,7.487740040E0,6.323332787E0
5.694070625E0,-1.869392693E-1,7.530810833E0,6.285048008E0
5.713829739E0,-1.618146300E-1,7.463811874E0,6.445665836E0
5.733574427E0,-1.821536273E-1,7.444669247E0,6.547360897E0
5.753332916E0,-7.328019291E-2,7.431509018E0,6.397510529E0
5.773096458E0,-7.567301393E-2,7.370491982E0,6.346064568E0
5.792854687E0,-4.695914313E-2,7.378866673E0,6.462415695E0
5.812613177E0,-1.055833027E-1,7.420741081E0,6.436094761E0
5.832393281E0,-1.271187067E-1,7.414759159E0,6.485147476E0
5.852138750E0,-3.619144112E-2,7.345067978E0,6.573681831E0
5.871897239E0,-4.217349738E-2,7.357032299E0,6.469594002E0
5.891661041E0,-3.260220960E-2,7.372884750E0,6.305386543E0
5.911410052E0,-3.858426586E-2,7.343871593E0,6.317350864E0
5.931168541E0,-8.763712645E-2,7.417151928E0,6.300601006E0
5.950944062E0,-1.342971772E-1,7.409973621E0,6.386742592E0
5.970668698E0,-1.426720470E-1,7.401598454E0,6.510272026E0
5.990427187E0,-1.127617657E-1,7.403991699E0,6.530611038E0
6.010199948E0,-1.331007630E-1,7.424330235E0,6.501897335E0
6.029948281E0,-1.127617657E-1,7.408777237E0,6.534200668E0
6.049706771E0,-1.307079345E-1,7.426723480E0,6.385546207E0
6.069441927E0,-1.342971772E-1,7.460222721E0,6.281458378E0
6.089186927E0,-1.079761237E-1,7.408777237E0,6.389135361E0
6.108944896E0,-9.960123897E-2,7.398009300E0,6.468397617E0
6.128734635E0,-6.610172242E-2,7.343871593E0,6.559325218E0
6.148503229E0,-7.567301393E-2,7.383652687E0,6.519843578E0
6.168261146E0,-8.644071966E-2,7.380063057E0,6.540182590E0
6.187973437E0,-8.045866340E-2,7.372884750E0,6.456433773E0
6.207732343E0,-6.969095767E-2,7.405188084E0,6.403492451E0
6.227490312E0,-5.892325938E-2,7.399205685E0,6.378367901E0
6.247304010E0,-1.127617657E-1,7.457829952E0,6.384349823E0
6.267022916E0,-1.570289880E-1,7.425527096E0,6.584449768E0
6.286780937E0,-1.402792335E-1,7.365706444E0,6.591628075E0
6.306550260E0,3.589233849E-3,7.357032299E0,6.511468410E0
6.326313281E0,-2.542374097E-2,7.349853992E0,6.524629116E0
6.346071250E0,-5.772684515E-2,7.329514980E0,6.468397617E0
6.365817812E0,-1.319043487E-1,7.389634609E0,6.571289062E0
6.385553125E0,-6.251249462E-2,7.370491982E0,6.566503525E0
6.405311146E0,3.589233849E-3,7.324729443E0,6.411867142E0
6.425079323E0,-3.379862010E-2,7.376473904E0,6.397510529E0
6.444843385E0,-9.601201117E-2,7.414759159E0,6.440880299E0
6.464601354E0,-9.361918271E-2,7.395616531E0,6.475576401E0
6.484352239E0,-3.020938672E-2,7.357032299E0,6.538986206E0
6.504094323E0,-9.242277592E-2,7.376473904E0,6.541378975E0
6.523852291E0,-5.054837838E-2,7.349853992E0,6.530611038E0
6.543613021E0,-5.413761362E-2,7.335496902E0,6.449255466E0
6.563394010E0,-2.901297435E-2,7.301997185E0,6.438487530E0
6.583151979E0,-5.054837838E-2,7.358228683E0,6.373582363E0
6.602879218E0,-8.883354068E-2,7.366902828E0,6.489933014E0
6.622664062E0,-9.601201117E-2,7.359724045E0,6.623931408E0
6.642422083E0,-9.601201117E-2,7.389634609E0,6.610770702E0
6.662183698E0,-3.020938672E-2,7.348657608E0,6.524629116E0
6.681907291E0,-6.610172242E-2,7.365706444E0,6.561717987E0
6.701665312E0,-3.499503061E-2,7.365706444E0,6.522236347E0
6.721447760E0,-3.379862010E-2,7.349853992E0,6.433403015E0
6.741201093E0,-2.901297435E-2,7.355835915E0,6.438487530E0
6.760959062E0,-4.935196787E-2,7.354639530E0,6.480361938E0
6.780693437E0,-4.336991161E-2,7.345067978E0,6.491129398E0
6.800486093E0,-3.379862010E-2,7.333104134E0,6.462415695E0
6.820244062E0,-6.729813665E-2,7.348657608E0,6.492326260E0
6.839980937E0,-9.122636169E-2,7.347461224E0,6.591628075E0
6.859724531E0,-6.370890141E-2,7.354639530E0,6.525825500E0
6.879482552E0,-3.499503061E-2,7.346264839E0,6.452844620E0
6.899235104E0,-4.336991161E-2,7.357032299E0,6.504290104E0
6.918972916E0,-3.978067636E-2,7.364510059E0,6.505486488E0
6.938730885E0,-2.422732860E-2,7.343871593E0,6.555736065E0
6.958524479E0,-2.691925503E-3,7.318747044E0,6.506682873E0
6.978262135E0,-5.294119939E-2,7.331907749E0,6.516254425E0
6.998020104E0,-8.404789865E-2,7.359724045E0,6.573681831E0
7.017768177E0,-5.174478889E-2,7.321139812E0,6.572485447E0
7.037549218E0,-9.870393202E-3,7.321139812E0,6.506682873E0
7.057307239E0,-3.738785535E-2,7.342675209E0,6.402296066E0
7.077049427E0,-7.328019291E-2,7.372884750E0,6.487540245E0
7.096806354E0,-5.294119939E-2,7.313961506E0,6.596413612E0
7.116564114E0,-1.824527234E-2,7.296015263E0,6.705586433E0
7.136308073E0,-5.413761362E-2,7.321139812E0,6.617949009E0
7.156078958E0,-7.447660714E-2,7.335496902E0,6.583253384E0
7.175836718E0,-2.542374097E-2,7.276872635E0,6.467201233E0
7.195566458E0,-1.465603895E-2,7.272087097E0,6.414260387E0
7.215363802E0,-3.379862010E-2,7.279265404E0,6.488736629E0
7.235121510E0,-6.131608039E-2,7.311568737E0,6.486343861E0
7.254841458E0,-7.806584239E-2,7.311568737E0,6.572485447E0
7.274631302E0,-6.969095767E-2,7.303194046E0,6.646663189E0
7.294389062E0,-5.892325938E-2,7.269694328E0,6.625127792E0
7.314118750E0,-8.045866340E-2,7.270890713E0,6.638288021E0
7.333856093E0,-5.174478889E-2,7.278069019E0,6.652645111E0
7.353613854E0,-5.084747914E-3,7.301997185E0,6.522236347E0
7.373391666E0,-2.781656384E-2,7.275676250E0,6.464808464E0
7.393129323E0,-4.336991161E-2,7.273283482E0,6.541378975E0
7.412887083E0,-2.662015148E-2,7.307979584E0,6.438487530E0
7.432661041E0,-7.088737190E-2,7.278069019E0,6.558128834E0
7.452427656E0,-8.165507019E-2,7.263712406E0,6.667002201E0
7.472185416E0,-6.370890141E-2,7.268497944E0,6.553342819E0
7.491916093E0,-4.935196787E-2,7.208677292E0,6.669394970E0
7.511678177E0,-2.542374097E-2,7.207480907E0,6.530611038E0
7.531435937E0,-3.499503061E-2,7.202695370E0,6.470790863E0
7.551229062E0,-3.140579537E-2,7.203891754E0,6.788138866E0
7.570939114E0,3.469592705E-2,7.036095142E0,6.879065990E0
7.590696875E0,5.982056633E-2,7.081558704E0,6.686144829E0
7.610470937E0,8.614161611E-2,7.055237770E0,6.678966045E0
7.630195312E0,4.426721856E-2,7.033702374E0,6.725925446E0
7.649953073E0,-4.935196787E-2,7.024130821E0,7.028916359E0
7.669730000E0,-9.960123897E-2,6.973881721E0,6.899405003E0
7.689463125E0,-6.131608039E-2,6.990631580E0,6.782156467E0
7.709220885E0,-7.686942816E-2,6.961917400E0,6.952046871E0
7.728987083E0,-1.797607988E-1,6.945167542E0,7.111468792E0
7.748721666E0,-1.546361595E-1,6.868597507E0,6.931707859E0
7.768479479E0,9.451649338E-2,6.914061069E0,7.231110096E0
7.788294583E0,-2.662015148E-2,6.861418724E0,7.286444187E0
7.808025364E0,-9.601201117E-2,6.903293133E0,7.044469833E0
7.827783125E0,-7.208377868E-2,6.912864685E0,7.135396957E0
7.847501354E0,-2.303091809E-2,6.822834492E0,7.006184578E0
7.867288854E0,3.589234129E-2,6.856633186E0,6.912565708E0
7.887046614E0,-7.477570791E-3,6.876972198E0,6.875476837E0
7.906839323E0,-7.208377868E-2,6.912864685E0,6.922136784E0
7.926574062E0,-6.370890141E-2,6.953542709E0,7.104290485E0
7.946331823E0,-1.055833027E-1,6.870990276E0,7.143772125E0
7.966052864E0,-4.576273263E-2,6.891329288E0,7.101897717E0
7.985802812E0,-5.294119939E-2,6.884150982E0,7.055237770E0
8.005560625E0,-2.901297435E-2,6.887740135E0,6.935297489E0
8.025346146E0,-1.495514181E-3,6.887740135E0,6.874280453E0
8.045064583E0,-3.619144112E-2,6.876972198E0,6.985845566E0
8.064822396E0,-6.370890141E-2,6.887740135E0,7.012166977E0
8.084606250E0,-8.883354068E-2,6.905686378E0,7.010970116E0
8.104347291E0,-7.806584239E-2,6.873383045E0,7.031309128E0
8.124104687E0,-5.892325938E-2,6.870990276E0,7.043273449E0
8.143875000E0,-5.174478889E-2,6.865008354E0,6.954440117E0
8.163610729E0,-2.542374097E-2,6.878168583E0,6.954440117E0
8.183368125E0,-7.806584239E-2,6.886543751E0,7.037291527E0
8.203132291E0,-4.576273263E-2,6.886543751E0,7.046862602E0
8.222870573E0,4.785645287E-3,6.850651264E0,7.004988194E0
8.242627968E0,-3.379862010E-2,6.875775814E0,7.033702374E0
8.262397864E0,-4.935196787E-2,6.851847649E0,7.032505512E0
8.282138802E0,-4.456632212E-2,6.865008354E0,6.961618423E0
8.301896250E0,-7.447660714E-2,6.849454880E0,7.028916359E0
8.321671458E0,-8.883354068E-2,6.888936520E0,7.073183537E0
8.341445521E0,-7.208377868E-2,6.851847649E0,7.119843960E0
8.361202916E0,4.785645287E-3,6.833901405E0,6.924529552E0
8.380940208E0,-3.738785535E-2,6.881757736E0,6.851548672E0
8.400695833E0,-1.007976532E-1,6.916453838E0,6.947261333E0
8.420453229E0,-2.781656384E-2,6.842276573E0,7.103094101E0
8.440206718E0,-2.662015148E-2,6.826723099E0,7.226324558E0
8.459961927E0,-6.131608039E-2,6.832705021E0,7.197610378E0
8.479719323E0,-6.610172242E-2,6.824030876E0,7.092326164E0
8.499458437E0,-3.888336709E-3,6.807281494E0,6.973881721E0
8.519242343E0,-5.084747914E-3,6.819245338E0,6.971488953E0
8.538999739E0,-8.404789865E-2,6.870990276E0,6.894619465E0
8.558758229E0,-1.055833027E-1,6.885347366E0,6.887440681E0
8.578499271E0,-1.067797095E-1,6.888936520E0,7.123433113E0
8.598256666E0,-9.840483218E-2,6.814459801E0,7.223931789E0
8.618015573E0,-3.260220960E-2,6.825526714E0,7.129415035E0
8.637746718E0,-2.901297435E-2,6.814459801E0,7.032505512E0
8.657504114E0,-1.226321608E-2,6.835097790E0,6.988238335E0
8.677288385E0,-4.097708687E-2,6.845865726E0,6.962814808E0
8.697037500E0,-2.901297435E-2,6.869793892E0,6.954440117E0
8.716794948E0,-6.610172242E-2,6.854240417E0,7.030112743E0
8.736586771E0,-5.054837838E-2,6.833901405E0,7.060023308E0
8.756712239E0,-3.738785535E-2,6.837490559E0,7.018148899E0
8.776469635E0,-6.490531564E-2,6.856633186E0,6.930511475E0
8.795808073E0,-7.447660714E-2,6.826723099E0,6.953243732E0
8.815565468E0,-1.582254022E-1,6.718746662E0,6.962814808E0
8.835349531E0,-4.815555736E-2,6.776174545E0,6.955636501E0
8.855072708E0,-5.174478889E-2,6.741478920E0,6.856334209E0
8.874830104E0,-6.610172242E-2,6.721139908E0,6.876673222E0
8.894614896E0,3.349951655E-2,6.739085674E0,7.061219692E0
8.914376093E0,4.426721856E-2,6.706782818E0,6.882655144E0
8.934133489E0,1.423729509E-1,6.564409733E0,7.054041386E0
8.953882448E0,1.232303679E-1,6.468397617E0,7.269694328E0
8.973644114E0,1.998006850E-1,6.596713066E0,6.631109715E0
8.993401510E0,2.189432681E-1,6.437291145E0,6.736692905E0
9.013161614E0,2.838485837E-1,6.025426388E0,7.896015644E0
9.032898854E0,-3.487538993E-1,6.312864304E0,8.388339043E0
9.052656250E0,-3.906283081E-1,6.332006931E0,8.164310455E0
9.072435468E0,-2.733799815E-1,6.290132523E0,7.704290867E0
9.092161302E0,-1.749751568E-1,6.206084728E0,7.501798153E0
9.111918437E0,-1.354935765E-1,6.033801556E0,7.668398380E0
9.131696458E0,-2.662015148E-2,5.949753284E0,8.028817177E0
9.151475521E0,-1.390828192E-1,5.952146530E0,7.882854939E0
9.171232656E0,-2.431706041E-1,5.913861275E0,7.805088520E0
9.190970260E0,-1.869392693E-1,5.775077343E0,7.775177956E0
9.210732135E0,3.469592705E-2,5.655137062E0,7.821837902E0
9.230489218E0,1.579262912E-1,5.603691578E0,8.028817177E0
9.250543125E0,2.297109663E-1,5.534299850E0,8.424231529E0
9.269963437E0,1.818545163E-1,5.469394207E0,8.316554070E0
9.289720573E0,-8.045866340E-2,5.584548950E0,8.050651550E0
9.309480364E0,9.571290761E-2,5.447858810E0,8.099704742E0
9.329243385E0,2.309073806E-1,5.254040241E0,8.209774017E0
9.349000521E0,7.298108935E-2,5.329414368E0,8.492426872E0
9.368768177E0,4.905286431E-2,5.409573555E0,8.399106979E0
9.388527968E0,2.452643216E-1,5.367699623E0,8.179863930E0
9.408285104E0,3.616153300E-1,5.169992447E0,8.111668587E0
9.428036354E0,1.878365725E-1,5.026422977E0,7.801498890E0
9.447787396E0,1.974078715E-1,4.614259243E0,7.590631485E0
9.467544531E0,1.902294010E-1,4.675276279E0,8.770293236E0
9.487302135E0,1.543370634E-1,4.391427994E0,8.947661400E0
9.507041250E0,1.663011760E-1,4.298107624E0,9.054141998E0
9.526798385E0,4.307080805E-2,4.505385876E0,9.274580956E0
9.546602291E0,3.110669367E-2,4.404588223E0,8.993124962E0
9.566697604E0,1.040877849E-1,4.162913322E0,8.886644363E0
9.586454791E0,1.196411327E-1,4.028615952E0,8.929715157E0
9.605818177E0,-5.084747914E-3,3.979563236E0,8.947661400E0
9.625569166E0,-3.260220960E-2,3.907778502E0,9.347561836E0
9.645326302E0,1.184447184E-1,3.753142357E0,9.294919968E0
9.665098229E0,4.426721856E-2,3.619144201E0,9.111868858E0
9.684843802E0,3.230310604E-2,3.853640795E0,9.232706070E0
9.704600937E0,-4.695914313E-2,3.537489176E0,8.513961792E0
9.724380729E0,2.021935135E-1,3.492025614E0,9.320044518E0
9.744093698E0,8.135596663E-2,3.360420227E0,9.472287178E0
9.763850833E0,-7.926224917E-2,3.387937784E0,9.219545364E0
9.783628177E0,-1.594218016E-1,3.574577808E0,9.136993408E0
9.803376198E0,-2.419741899E-1,3.350848913E0,9.225527763E0
9.823133333E0,-1.582254022E-1,3.058326483E0,9.469894409E0
9.842868385E0,-1.737787426E-1,3.133999348E0,9.475876808E0
9.862655208E0,-4.408775866E-1,2.967399120E0,9.353543282E0
9.882412343E0,-5.258227587E-1,2.770888567E0,9.011071205E0
9.902175833E0,-7.486543655E-1,2.557927370E0,9.388538361E0
9.921919010E0,-5.452644825E-1,2.767299414E0,1.018265629E1
9.941676146E0,-4.767699242E-1,2.621337175E0,1.026520920E1
9.961426458E0,-7.390831113E-1,2.338685036E0,9.428020477E0
9.981191146E0,-6.122635007E-1,2.380559444E0,9.106783867E0
1.000094833E1,-8.542376757E-1,2.502593279E0,9.094820023E0
1.002068703E1,-1.232602715E0,2.557927370E0,9.375079155E0
1.004043250E1,-8.410771489E-1,2.525325298E0,1.002443123E1
1.006018964E1,-3.176472187E-1,2.295614243E0,9.659226418E0
1.007995286E1,-6.696912646E-1,1.925324917E0,9.430413246E0
1.009969083E1,-2.670988142E-1,1.894218206E0,9.269794464E0
1.011944760E1,-5.931209326E-1,1.509871125E0,9.654440880E0
1.013923510E1,-3.690928817E-1,1.532602906E0,9.843474388E0
1.015898354E1,-2.985046208E-1,1.425823212E0,9.793225288E0
1.017874031E1,-4.995017350E-1,1.342074394E0,1.022572803E1
1.019846979E1,-3.786641955E-1,1.228415370E0,9.631410599E0
1.021821521E1,-4.001995921E-1,1.068993568E0,9.576375008E0
1.023797198E1,-3.475574851E-1,8.330013752E-1,9.621838570E0
1.025771724E1,-2.335993052E-1,8.736793399E-1,9.784850121E0
1.027747026E1,-3.858426511E-1,1.057029366E0,9.648459435E0
1.029722703E1,-3.738785386E-1,1.015154958E0,9.681958199E0
1.031700500E1,-4.612165689E-1,9.996016622E-1,9.410074234E0
1.033677115E1,-5.799604058E-1,7.325028181E-1,9.402895927E0
1.035652797E1,-5.030909777E-1,4.004986882E-1,9.817152977E0
1.037628651E1,-5.967101455E-1,6.424728632E-1,1.038485050E1
1.039604661E1,1.076770201E-2,3.167499006E-1,1.031904793E1
1.041580344E1,-2.228316069E-1,5.982056609E-4,9.981360435E0
1.043556016E1,-1.989033818E-1,-2.691925503E-2,1.025803089E1
1.045529875E1,5.742774159E-2,4.725824669E-2,1.007348442E1
1.047505557E1,8.374879137E-3,8.434699476E-2,9.438788414E0
1.049482531E1,-3.738785535E-2,-4.965107143E-2,9.454340935E0
1.051457401E1,-1.079761237E-1,5.383851007E-3,9.725028992E0
1.053433078E1,-7.567301393E-2,-1.130608693E-1,1.006271648E1
1.055408932E1,-1.426720470E-1,-1.683948934E-1,1.013210869E1
1.057385010E1,-2.455634177E-1,-2.066800594E-1,9.736993790E0
1.059360688E1,-2.036890239E-1,-3.334996700E-1,1.015603638E1
1.061332995E1,-3.260220885E-1,-2.162513435E-1,9.987342834E0
1.063309323E1,-2.769692242E-1,-1.779661775E-1,9.925128937E0
1.065285000E1,-2.168495506E-1,-2.413759828E-1,9.965806961E0
1.067262391E1,-2.781656384E-1,-1.923231184E-1,9.962218285E0
1.069239531E1,-4.193421602E-1,-2.093719877E-2,1.001725292E1
1.071215214E1,-3.403790295E-1,-2.452643216E-2,9.774082184E0
1.073192703E1,-2.611167729E-1,-1.734796353E-2,9.803992271E0
1.075163755E1,-1.869392693E-1,1.094716340E-1,9.658030510E0
1.077139432E1,-1.271187067E-1,-1.375873014E-2,9.787242889E0
1.079122969E1,-2.961117923E-1,1.094716340E-1,1.001007462E1
1.081091635E1,-3.032902777E-1,7.118647546E-2,9.994521141E0
1.083067318E1,-2.060818523E-1,-7.776673418E-3,9.720243454E0
1.085043167E1,-8.045866340E-2,3.888336942E-2,9.569196701E0
1.087018401E1,-1.977069676E-1,2.931207791E-2,9.801599503E0
1.088994078E1,-2.324029058E-1,4.965107143E-2,1.014287567E1
1.090969682E1,-2.877369225E-1,7.956135273E-2,1.012851906E1
1.092945375E1,-2.515454888E-1,1.375873014E-2,1.001725292E1
1.094921052E1,-1.618146300E-1,1.226321608E-1,9.792028427E0
1.096895219E1,-9.242277592E-2,1.707877219E-1,1.003639507E1
1.098870005E1,-2.961117923E-1,3.035893738E-1,9.854242325E0
1.100845682E1,-2.335993052E-1,3.825525343E-1,9.781260490E0
1.102824307E1,-2.276172489E-1,2.724826932E-1,9.995717049E0
1.104799031E1,-2.829512656E-1,3.131606579E-1,1.039202881E1
1.106774708E1,-2.455634177E-1,3.993022740E-1,1.047966576E1
1.108751474E1,-2.889333367E-1,4.713860750E-1,1.005434132E1
1.110726396E1,-2.422732860E-2,7.169494629E-1,9.072088242E0
1.112702062E1,7.776673883E-2,8.341978192E-1,9.380164146E0
1.114680698E1,-1.510469317E-1,1.092921734E0,9.869794846E0
1.116655500E1,-4.241278172E-1,1.267896891E0,9.698708534E0
1.118631172E1,-3.439682424E-1,1.346860051E0,9.577571869E0
1.120606854E1,-2.312064916E-1,1.321735382E0,9.477072716E0
1.122580344E1,-2.060818523E-1,1.458126307E0,9.547661781E0
1.124556010E1,-1.618146300E-1,1.489532113E0,9.049356461E0
1.126532036E1,-2.407777756E-1,1.321735382E0,9.556035995E0
1.128504964E1,-3.978067636E-1,1.429412484E0,9.995717049E0
1.130480635E1,-3.619144261E-1,1.386341572E0,1.000289631E1
1.132457177E1,-3.320041299E-1,1.406680584E0,1.010339451E1
1.134437161E1,-4.779663086E-1,1.422233939E0,9.659226418E0
1.136412833E1,-2.647060156E-1,1.429412484E0,9.568000793E0
1.138384885E1,-3.379862010E-1,1.554138303E0,9.795618057E0
1.140361818E1,-3.954139352E-1,1.596012712E0,9.763314247E0
1.142337490E1,-3.918247223E-1,1.762612939E0,9.411270142E0
1.144314438E1,-2.997010350E-1,1.870290041E0,9.384949684E0
1.146288427E1,-2.889333367E-1,1.893021822E0,9.454340935E0
1.148264099E1,-3.020938635E-1,1.773380637E0,9.497411728E0
1.150241479E1,-3.631108403E-1,1.775773525E0,9.652048111E0
1.152214896E1,-3.284149170E-1,1.678565025E0,9.772886276E0
1.154190568E1,-3.499503136E-1,1.660618901E0,9.740582466E0
1.156168677E1,-3.559323549E-1,1.718046665E0,9.673583984E0
1.158141818E1,-3.044866920E-1,1.779362798E0,9.571589470E0
1.160117484E1,-3.475574851E-1,1.734796405E0,9.534501076E0
1.162093094E1,-3.152543902E-1,1.684547186E0,9.967003822E0
1.164068312E1,-4.277170599E-1,1.676172256E0,9.959825516E0
1.166043979E1,-3.714857101E-1,1.732403636E0,9.486644745E0
1.168022568E1,-1.917249113E-1,1.784148335E0,9.293723106E0
1.169994922E1,-1.761715710E-1,1.676172256E0,9.764511108E0
1.171970594E1,-4.863412082E-1,1.677368641E0,9.841081619E0
1.173946161E1,-3.990031779E-1,1.703689694E0,9.875777245E0
1.175922318E1,-2.395813614E-1,1.672582984E0,9.709476471E0
1.177897990E1,-2.877369225E-1,1.772184253E0,9.739386559E0
1.179874630E1,-3.272185028E-1,1.870290041E0,9.478269577E0
1.181852000E1,-2.036890239E-1,1.767398596E0,9.426823616E0
1.183827672E1,-3.774677813E-1,1.761416554E0,9.782457352E0
1.185799703E1,-5.524429083E-1,1.830808401E0,9.621838570E0
1.187775745E1,-4.743770957E-1,1.893021822E0,9.853045464E0
1.189751417E1,-4.013960063E-1,1.757827282E0,9.776474953E0
1.191730323E1,-2.709871531E-1,1.765005827E0,9.741779327E0
1.193705807E1,-2.515454888E-1,1.879861236E0,9.612267494E0
1.195681479E1,-2.659024298E-1,1.877468467E0,9.474679947E0
1.197659807E1,-3.104687333E-1,1.883450508E0,9.376275063E0
1.199674719E1,-2.937189937E-1,1.841576099E0,9.620642662E0
1.201650391E1,-5.042873621E-1,1.983949065E0,9.774082184E0
1.203585411E1,-5.440680385E-1,1.993520379E0,9.768099785E0
1.205558964E1,-4.887340367E-1,1.968395710E0,9.348757744E0
1.207534635E1,-3.092723191E-1,1.812862277E0,9.274580956E0
1.209508557E1,-2.527419031E-1,1.671386600E0,9.636196136E0
1.211483901E1,-3.128615618E-1,1.686939955E0,9.867402077E0
1.213459563E1,-5.066801906E-1,1.766202211E0,9.736993790E0
1.215439255E1,-4.229314029E-1,1.780559182E0,9.453145027E0
1.217411849E1,-3.092723191E-1,1.800898194E0,9.653244972E0
1.219387521E1,-2.120639086E-1,1.674975872E0,9.798010826E0
1.221362167E1,-7.926224917E-2,1.695314884E0,9.987342834E0
1.223338099E1,-7.328019291E-2,1.648654819E0,1.002323532E1
1.225313760E1,-1.594218016E-1,1.448554993E0,9.661619186E0
1.227287708E1,-1.271187067E-1,1.590030670E0,9.713065147E0
1.229267682E1,-1.989033818E-1,1.545763373E0,9.943075180E0
1.231243344E1,-3.284149170E-1,1.368395448E0,9.811170578E0
1.233218557E1,-5.380859971E-1,1.629512191E0,9.443573952E0
1.235196588E1,-1.929213256E-1,1.573280931E0,9.595518112E0
1.237172255E1,-2.985046208E-1,1.679761529E0,9.584750175E0
1.239143401E1,-2.479562461E-1,1.841576099E0,9.629017830E0
1.241119901E1,1.962114573E-1,1.334895968E0,1.002921677E1
1.243095563E1,-2.192423791E-1,1.824826360E0,9.681958199E0
1.245071281E1,-2.036890239E-1,1.809273005E0,9.559625626E0
1.247078557E1,-1.295115203E-1,1.674975872E0,9.668798447E0
1.249054224E1,-2.479562461E-1,1.677368641E0,9.723833084E0
1.250995359E1,-5.246263742E-1,2.265404940E0,9.655637741E0
1.252971505E1,9.451649338E-2,1.442572951E0,9.330811501E0
1.254947167E1,-1.570289880E-1,1.318146229E0,9.536893845E0
1.256924688E1,-3.930211067E-1,1.827219248E0,1.031904793E1
1.258897203E1,-5.294120312E-1,1.859522343E0,9.805189133E0
1.260872865E1,-2.817548811E-1,1.704886079E0,9.832706451E0
1.262852177E1,-2.347957194E-1,1.742274046E0,9.630213737E0
1.264826161E1,-2.108674943E-1,1.821237087E0,9.660423279E0
1.266801828E1,-2.479562461E-1,1.936092615E0,9.570393562E0
1.268778615E1,-3.439682424E-1,2.030908108E0,9.456734657E0
1.270752635E1,-2.745763958E-1,1.961217284E0,9.432806015E0
1.272728297E1,-3.248256743E-1,1.922932148E0,9.540482521E0
1.274703635E1,-3.559323549E-1,1.884646893E0,9.754940033E0
1.276682380E1,-4.097708762E-1,1.895414591E0,9.714262009E0
1.278658042E1,-4.217349887E-1,1.794916034E0,9.675976753E0
1.280631333E1,-3.846462369E-1,1.786541224E0,9.805189133E0
1.282607578E1,-3.116651475E-1,1.876272082E0,9.674779892E0
1.284583245E1,-2.949153781E-1,1.873879194E0,9.535696983E0
1.286558042E1,-2.575275302E-1,1.922932148E0,9.633803368E0
1.288537818E1,-3.499503136E-1,2.014158487E0,9.535696983E0
1.290513484E1,-3.260220885E-1,1.976770639E0,9.569196701E0
1.292485964E1,-3.858426511E-1,1.887039781E0,9.612267494E0
1.294461359E1,-3.774677813E-1,1.937289000E0,9.655637741E0
1.296437026E1,-2.961117923E-1,1.851147413E0,9.605089188E0
1.298414255E1,-2.889333367E-1,1.847558141E0,9.623035431E0
1.300387385E1,-3.176472187E-1,1.877468467E0,9.678369522E0
1.302363047E1,-3.056831062E-1,1.837986946E0,9.802796364E0
1.304337859E1,-3.403790295E-1,1.847558141E0,9.793225288E0
1.306312823E1,-3.056831062E-1,1.876272082E0,9.672387123E0
1.308288484E1,-3.571287692E-1,1.875075698E0,9.569196701E0
1.310266990E1,-3.475574851E-1,1.933699846E0,9.565608025E0
1.312241594E1,-3.332005441E-1,1.955235243E0,9.435198784E0
1.314217255E1,-2.817548811E-1,1.872682810E0,9.690333366E0
1.316191562E1,-3.188436031E-1,1.893021822E0,9.741779327E0
1.318167813E1,-3.655036688E-1,1.883450508E0,9.624231339E0
1.320143479E1,-3.475574851E-1,1.797308922E0,9.547661781E0
1.322119719E1,-2.371885478E-1,1.800898194E0,9.777671814E0
1.324095417E1,-3.044866920E-1,1.931306958E0,9.753743172E0
1.326071073E1,-3.583251834E-1,1.933699846E0,9.570393562E0
1.328046755E1,-3.906283081E-1,1.889432549E0,9.608678818E0
1.330021661E1,-3.176472187E-1,1.811665893E0,9.819545746E0
1.331997323E1,-3.140579760E-1,1.814058661E0,9.999306679E0
1.333974365E1,-4.408775866E-1,1.889432549E0,9.717850685E0
1.335950651E1,-3.032902777E-1,1.840379715E0,9.483055115E0
1.337926307E1,-2.925225794E-1,1.899003863E0,9.459127426E0
1.339901588E1,-2.925225794E-1,1.896611094E0,9.529715538E0
1.341878026E1,-3.475574851E-1,1.981556296E0,9.632606506E0
1.343853688E1,-3.655036688E-1,1.971984982E0,9.529715538E0
1.345831797E1,-3.499503136E-1,1.899003863E0,9.590732574E0
1.347803552E1,-4.001995921E-1,1.878664851E0,9.739386559E0
1.349779208E1,-2.913261652E-1,1.867897153E0,9.692726135E0
1.351756161E1,-2.961117923E-1,1.859522343E0,9.648459435E0
1.353731740E1,-3.499503136E-1,1.866700768E0,9.696315765E0
1.355707401E1,-3.308077157E-1,1.919342875E0,9.705886841E0
1.357687729E1,-3.140579760E-1,1.946860313E0,9.607481956E0
1.359661990E1,-4.013960063E-1,1.907378793E0,9.583553314E0
1.361637651E1,-2.611167729E-1,1.927717686E0,9.558428764E0
1.363615094E1,-3.320041299E-1,1.940878272E0,9.546464920E0
1.365587109E1,-3.260220885E-1,1.899003863E0,9.678369522E0
1.367562771E1,-3.487538993E-1,1.881057739E0,9.661619186E0
1.369538359E1,-4.097708762E-1,1.878664851E0,9.717850685E0
1.371513495E1,-3.248256743E-1,1.903789520E0,9.692726135E0
1.373489151E1,-3.379862010E-1,1.895414591E0,9.600303650E0
1.375463385E1,-3.499503136E-1,1.918146491E0,9.639784813E0
1.377445130E1,-3.068794906E-1,1.912164450E0,9.678369522E0
1.379420792E1,-3.092723191E-1,1.869093537E0,9.711869240E0
1.381391052E1,-3.511467278E-1,1.806880236E0,9.725028992E0
1.383367344E1,-3.020938635E-1,1.872682810E0,9.775279045E0
1.385343000E1,-3.786641955E-1,1.903789520E0,9.661619186E0
1.387318338E1,-3.810569942E-1,1.924128532E0,9.552447319E0
1.389293917E1,-3.547359705E-1,2.012962103E0,9.634999275E0
1.391269573E1,-2.611167729E-1,2.027318954E0,9.529715538E0
1.393248443E1,-2.781656384E-1,2.030908108E0,9.456734657E0
1.395221531E1,-3.188436031E-1,2.011765718E0,9.517750740E0
1.397197193E1,-2.697907388E-1,1.975574136E0,9.705886841E0
1.399172833E1,-3.272185028E-1,1.872682810E0,9.727422714E0
1.401150125E1,-3.655036688E-1,1.906182289E0,9.776474953E0
1.403125786E1,-3.619144261E-1,1.979163408E0,9.708279610E0
1.405100620E1,-3.164508045E-1,1.987538338E0,9.514162064E0
1.407075266E1,-3.056831062E-1,1.999502420E0,9.491430283E0
1.409050927E1,-2.865405083E-1,2.022533417E0,9.521340370E0
1.411060427E1,-3.894318938E-1,1.980359793E0,9.646066666E0
1.412999953E1,-4.504488707E-1,1.961217284E0,9.726225853E0
1.414975609E1,-3.571287692E-1,1.977967024E0,9.608678818E0
1.416951802E1,-2.961117923E-1,1.992323995E0,9.581160545E0
1.418929849E1,-3.367897868E-1,1.952842355E0,9.677172661E0
1.420905510E1,-3.152543902E-1,1.921735644E0,9.684351921E0
1.422878062E1,-3.403790295E-1,1.931306958E0,9.653244972E0
1.424857885E1,-3.379862010E-1,1.971984982E0,9.647262573E0
1.426833547E1,-3.272185028E-1,2.006979942E0,9.593125343E0
1.428808323E1,-3.415754437E-1,2.066800594E0,9.582357407E0
1.430781328E1,-3.248256743E-1,2.034497499E0,9.542876244E0
1.432756984E1,-3.367897868E-1,1.992323995E0,9.637392044E0
1.434734677E1,-3.427718580E-1,1.975574136E0,9.673583984E0
1.436707349E1,-3.607180119E-1,1.988734722E0,9.593125343E0
1.438683005E1,-3.499503136E-1,1.933699846E0,9.661619186E0
1.440659682E1,-3.702892959E-1,1.962413669E0,9.660423279E0
1.442674406E1,-3.236292601E-1,1.952842355E0,9.631410599E0
1.444650062E1,-3.619144261E-1,1.994716763E0,9.563215256E0
1.446587005E1,-2.889333367E-1,2.045265198E0,9.590732574E0
1.448562938E1,-3.188436031E-1,2.039283037E0,9.570393562E0
1.450538599E1,-3.391826153E-1,2.026122570E0,9.563215256E0
1.452513990E1,-3.020938635E-1,1.948056698E0,9.647262573E0
1.454489104E1,-3.858426511E-1,1.943271041E0,9.759725571E0
1.456464760E1,-4.049852192E-1,1.977967024E0,9.660423279E0
1.458439599E1,-3.296113312E-1,1.934896231E0,9.623035431E0
1.460414682E1,-2.997010350E-1,1.933699846E0,9.566803932E0
1.462390344E1,-3.439682424E-1,1.991127491E0,9.664012909E0
1.464366953E1,-3.475574851E-1,2.046461582E0,9.620642662E0
1.466342182E1,-3.176472187E-1,1.982752681E0,9.601499557E0
1.468317839E1,-3.032902777E-1,1.939681888E0,9.719047546E0
1.470290563E1,-3.655036688E-1,2.008176327E0,9.729815483E0
1.472270464E1,-3.762713671E-1,2.035693884E0,9.620642662E0
1.474246125E1,-2.949153781E-1,2.001895189E0,9.479466438E0
1.476219526E1,-2.659024298E-1,1.992323995E0,9.468698502E0
1.478199948E1,-3.595215976E-1,2.000698805E0,9.684351921E0
1.480175609E1,-4.229314029E-1,2.016551256E0,9.632606506E0
1.482145198E1,-4.085744619E-1,1.963610053E0,9.656833649E0
1.484122135E1,-3.499503136E-1,1.931306958E0,9.664012909E0
1.486097792E1,-3.068794906E-1,1.942074656E0,9.650852203E0
1.488071828E1,-3.451646566E-1,1.963610053E0,9.640981674E0
1.490049214E1,-3.547359705E-1,1.982752681E0,9.667601585E0
1.492024870E1,-3.415754437E-1,2.042872429E0,9.609874725E0
1.494000151E1,-3.320041299E-1,2.006979942E0,9.498608589E0
1.495973734E1,-3.427718580E-1,1.998306036E0,9.593125343E0
1.497949391E1,-3.607180119E-1,1.957628012E0,9.679565430E0
1.499927599E1,-3.726821244E-1,1.964806437E0,9.680762291E0
1.501898333E1,-3.762713671E-1,2.003091574E0,9.689137459E0
1.503873990E1,-3.152543902E-1,1.949253201E0,9.626625061E0
1.505852469E1,-2.793620527E-1,1.948056698E0,9.607481956E0
1.507830620E1,-3.595215976E-1,1.991127491E0,9.596714020E0
1.509806276E1,-3.535395563E-1,1.983949065E0,9.713065147E0
1.511779568E1,-3.643072546E-1,1.948056698E0,9.678369522E0
1.513755740E1,-3.236292601E-1,1.967199326E0,9.602696419E0
1.515731385E1,-3.308077157E-1,2.011765718E0,9.559625626E0
1.517704286E1,-3.200400174E-1,2.036890268E0,9.611071587E0
1.519684625E1,-3.415754437E-1,2.051247120E0,9.569196701E0
1.521660276E1,-3.631108403E-1,2.052443504E0,9.552447319E0
1.523633828E1,-3.978067636E-1,2.016551256E0,9.602696419E0
1.525609120E1,-3.355933726E-1,2.001895189E0,9.640981674E0
1.527584766E1,-2.997010350E-1,1.976770639E0,9.584750175E0
1.529561651E1,-3.631108403E-1,2.038086653E0,9.627820969E0
1.531537198E1,-3.451646566E-1,1.962413669E0,9.666405678E0
1.533512849E1,-3.008974493E-1,1.910967946E0,9.753743172E0
1.535486505E1,-3.535395563E-1,1.992323995E0,9.771689415E0
1.537463979E1,-3.930211067E-1,2.021337032E0,9.681958199E0
1.539439625E1,-3.044866920E-1,2.018944025E0,9.479466438E0
1.541415214E1,-2.961117923E-1,2.030908108E0,9.509376526E0
1.543389365E1,-3.750749528E-1,2.069193363E0,9.541679382E0
1.545365010E1,-4.121637046E-1,2.051247120E0,9.546464920E0
1.547339979E1,-3.690928817E-1,2.006979942E0,9.623035431E0
1.549314214E1,-3.822534084E-1,1.952842355E0,9.683155060E0
1.551289859E1,-3.403790295E-1,1.881057739E0,9.760921478E0
1.553268089E1,-3.786641955E-1,1.919342875E0,9.740582466E0
1.555243385E1,-4.133601189E-1,1.974377751E0,9.669994354E0
1.557219031E1,-3.248256743E-1,1.989931107E0,9.566803932E0
1.559195057E1,-3.415754437E-1,2.063211441E0,9.579964638E0
1.561168823E1,-3.571287692E-1,2.091925144E0,9.511769295E0
1.563144474E1,-3.750749528E-1,2.083550215E0,9.515357971E0
1.565121469E1,-3.942175210E-1,2.042872429E0,9.597910881E0
1.567095594E1,-3.774677813E-1,1.974377751E0,9.644570351E0
1.569071245E1,-4.049852192E-1,1.928914189E0,9.703494072E0
1.571048729E1,-3.870390654E-1,1.918146491E0,9.771689415E0
1.573021484E1,-4.193421602E-1,1.919342875E0,9.714262009E0
1.574997135E1,-3.786641955E-1,1.994716763E0,9.710672379E0
1.576974250E1,-3.463610709E-1,2.085943222E0,9.552447319E0
1.578950286E1,-2.937189937E-1,2.057229280E0,9.481859207E0
1.580925932E1,-3.236292601E-1,2.083550215E0,9.504590988E0
1.582898516E1,-3.535395563E-1,2.059622049E0,9.606286049E0
1.584875318E1,-4.193421602E-1,2.026122570E0,9.656833649E0
1.586850964E1,-4.145565331E-1,2.045265198E0,9.639784813E0
1.588830182E1,-3.834498227E-1,2.010569334E0,9.621838570E0
1.590802594E1,-3.511467278E-1,1.993520379E0,9.579964638E0
1.592778240E1,-3.894318938E-1,2.011765718E0,9.605089188E0
1.594754443E1,-3.535395563E-1,2.034497499E0,9.612267494E0
1.596728370E1,-3.571287692E-1,1.980359793E0,9.684351921E0
1.598704016E1,-3.834498227E-1,1.931306958E0,9.786046028E0
1.600683005E1,-3.475574851E-1,2.009372711E0,9.708279610E0
1.602658818E1,-3.595215976E-1,2.077568293E0,9.544072151E0
1.604634469E1,-3.200400174E-1,2.077568293E0,9.451948166E0
1.606606474E1,-3.320041299E-1,2.079961061E0,9.481859207E0
1.608585651E1,-3.882354796E-1,2.026122570E0,9.558428764E0
1.610561297E1,-3.978067636E-1,2.000698805E0,9.666405678E0
1.612536807E1,-4.085744619E-1,2.014158487E0,9.672387123E0
1.614509536E1,-4.169493318E-1,1.962413669E0,9.702297211E0
1.616485161E1,-3.786641955E-1,1.973181367E0,9.703494072E0
1.618462088E1,-3.391826153E-1,1.999502420E0,9.671191216E0
1.620439005E1,-3.631108403E-1,2.039283037E0,9.615857124E0
1.622414635E1,-3.284149170E-1,2.056032896E0,9.582357407E0
1.624388172E1,-3.176472187E-1,2.085943222E0,9.566803932E0
1.626364161E1,-3.308077157E-1,2.054836512E0,9.552447319E0
1.628339792E1,-3.822534084E-1,2.072782516E0,9.584750175E0
1.630315714E1,-3.894318938E-1,2.064407825E0,9.542876244E0
1.632290422E1,-3.571287692E-1,2.047657967E0,9.623035431E0
1.634266052E1,-3.631108403E-1,1.957628012E0,9.698708534E0
1.636243396E1,-3.499503136E-1,1.974377751E0,9.742975235E0
1.638219615E1,-3.798605800E-1,2.009372711E0,9.626625061E0
1.640195250E1,-3.774677813E-1,2.078764677E0,9.563215256E0
1.642171177E1,-3.655036688E-1,2.057229280E0,9.560821533E0
1.644146391E1,-2.973082066E-1,2.016551256E0,9.674779892E0
1.646122026E1,-3.355933726E-1,2.030908108E0,9.642177582E0
1.648096573E1,-3.702892959E-1,2.016551256E0,9.634999275E0
1.650073542E1,-3.714857101E-1,2.014158487E0,9.632606506E0
1.652049177E1,-3.870390654E-1,2.010569334E0,9.662816048E0
1.654026724E1,-3.415754437E-1,1.985145450E0,9.649655342E0
1.656002885E1,-3.906283081E-1,2.062014818E0,9.607481956E0
1.657978516E1,-3.631108403E-1,2.083550215E0,9.573982239E0
1.659953844E1,-3.272185028E-1,2.087139606E0,9.533304214E0
1.661928286E1,-3.343969584E-1,2.064407825E0,9.623035431E0
1.663903917E1,-3.224328458E-1,2.057229280E0,9.667601585E0
1.665881583E1,-4.336991012E-1,2.107478619E0,9.675976753E0
1.667857089E1,-3.631108403E-1,2.053640127E0,9.564411163E0
1.669832719E1,-2.937189937E-1,2.018944025E0,9.502198219E0
1.671807359E1,-3.379862010E-1,2.039283037E0,9.605089188E0
1.673782052E1,-4.157529473E-1,2.079961061E0,9.626625061E0
1.675757682E1,-4.719842672E-1,2.099103689E0,9.593125343E0
1.677735281E1,-3.834498227E-1,2.004287958E0,9.638588905E0
1.679712344E1,-3.367897868E-1,2.035693884E0,9.636196136E0
1.681687974E1,-3.690928817E-1,2.042872429E0,9.636196136E0
1.683666651E1,-3.762713671E-1,2.075175524E0,9.558428764E0
1.685672245E1,-3.667000830E-1,2.053640127E0,9.640981674E0
1.687647875E1,-3.308077157E-1,2.029711723E0,9.612267494E0
1.689589349E1,-3.571287692E-1,2.089532375E0,9.619445801E0
1.691567922E1,-3.858426511E-1,2.067996979E0,9.584750175E0
1.693543557E1,-3.559323549E-1,2.039283037E0,9.593125343E0
1.695520891E1,-3.667000830E-1,2.035693884E0,9.639784813E0
1.697492286E1,-4.157529473E-1,2.023729801E0,9.686744690E0
1.699467917E1,-3.702892959E-1,1.999502420E0,9.666405678E0
1.701444844E1,-3.607180119E-1,2.039283037E0,9.634999275E0
1.703418896E1,-3.547359705E-1,2.063211441E0,9.572786331E0
1.705394526E1,-3.750749528E-1,2.070389748E0,9.600303650E0
1.707369990E1,-3.726821244E-1,2.088335991E0,9.550054550E0
1.709347338E1,-3.523431420E-1,2.059622049E0,9.573982239E0
1.711322969E1,-3.547359705E-1,2.063211441E0,9.633803368E0
1.713300068E1,-3.786641955E-1,2.035693884E0,9.630213737E0
1.715273318E1,-4.205385745E-1,2.045265198E0,9.669994354E0
1.717248974E1,-3.714857101E-1,2.059622049E0,9.649655342E0
1.719226854E1,-3.487538993E-1,2.076371908E0,9.523733139E0
1.721205000E1,-3.714857101E-1,2.145763636E0,9.510572433E0
1.723180661E1,-4.109672904E-1,2.082353830E0,9.585947037E0
1.725155094E1,-3.535395563E-1,1.973181367E0,9.722636223E0
1.727131906E1,-3.511467278E-1,1.971984982E0,9.793225288E0
1.729107562E1,-4.121637046E-1,2.033301115E0,9.742975235E0
1.731080615E1,-3.834498227E-1,2.079961061E0,9.542876244E0
1.733058130E1,-3.990031779E-1,2.073979139E0,9.498608589E0
1.735033786E1,-3.942175210E-1,2.113460541E0,9.522537231E0
1.737005625E1,-3.834498227E-1,2.126621008E0,9.484251976E0
1.738982604E1,-4.253242314E-1,2.084746838E0,9.575179100E0
1.740958260E1,-3.834498227E-1,2.040479422E0,9.644570351E0
1.742933495E1,-4.097708762E-1,1.975574136E0,9.671191216E0
1.744911594E1,-3.798605800E-1,1.989931107E0,9.691530228E0
1.746887250E1,-4.037888348E-1,2.032104731E0,9.642177582E0
1.748863672E1,-3.774677813E-1,2.042872429E0,9.611071587E0
1.750843026E1,-3.619144261E-1,2.096710920E0,9.573982239E0
1.752818688E1,-3.726821244E-1,2.087139606E0,9.590732574E0
1.754790068E1,-3.559323549E-1,2.067996979E0,9.556035995E0
1.756764927E1,-3.726821244E-1,2.054836512E0,9.547661781E0
1.758740583E1,-4.121637046E-1,2.069193363E0,9.590732574E0
1.760719052E1,-4.157529473E-1,2.042872429E0,9.685547829E0
1.762695526E1,-4.073780477E-1,2.014158487E0,9.662816048E0
1.764671188E1,-4.157529473E-1,2.088335991E0,9.602696419E0
1.766648568E1,-3.738785386E-1,2.071586132E0,9.579964638E0
1.768622005E1,-3.379862010E-1,2.048854351E0,9.607481956E0
1.770597667E1,-3.714857101E-1,2.044068813E0,9.609874725E0
1.772570901E1,-3.810569942E-1,2.058425665E0,9.579964638E0
1.774550406E1,-3.607180119E-1,2.071586132E0,9.589535713E0
1.776526068E1,-3.738785386E-1,2.067996979E0,9.643374443E0
1.778501255E1,-3.942175210E-1,2.099103689E0,9.583553314E0
1.780475411E1,-3.439682424E-1,2.090728760E0,9.486644745E0
1.782451068E1,-3.834498227E-1,2.030908108E0,9.591928482E0
1.784429380E1,-3.954139352E-1,2.072782516E0,9.683155060E0
1.786399422E1,-3.655036688E-1,1.994716763E0,9.660423279E0
1.788375078E1,-3.439682424E-1,1.982752681E0,9.675976753E0
1.790351771E1,-3.774677813E-1,2.027318954E0,9.715457916E0
1.792331380E1,-4.097708762E-1,2.101496458E0,9.672387123E0
1.794307042E1,-3.451646566E-1,2.113460541E0,9.483055115E0
1.796280073E1,-3.200400174E-1,2.119442701E0,9.460323334E0
1.798259839E1,-3.511467278E-1,2.107478619E0,9.502198219E0
1.800235500E1,-3.858426511E-1,2.093121529E0,9.576375008E0
1.802210130E1,-4.097708762E-1,2.053640127E0,9.627820969E0
1.804185521E1,-4.157529473E-1,2.042872429E0,9.656833649E0
1.806161177E1,-3.906283081E-1,1.986341953E0,9.697511673E0
1.808135630E1,-4.073780477E-1,2.032104731E0,9.669994354E0
1.810110703E1,-4.073780477E-1,2.084746838E0,9.587142944E0
1.812086359E1,-4.013960063E-1,2.096710920E0,9.590732574E0
1.814063036E1,-3.607180119E-1,2.111067772E0,9.621838570E0
1.816073182E1,-3.320041299E-1,2.127817631E0,9.526125908E0
1.818049000E1,-3.583251834E-1,2.094317913E0,9.511769295E0
1.819990958E1,-3.882354796E-1,2.097907305E0,9.594321251E0
1.821966630E1,-3.702892959E-1,2.064407825E0,9.646066666E0
1.823942448E1,-3.475574851E-1,2.027318954E0,9.681958199E0
1.825917198E1,-3.846462369E-1,2.012962103E0,9.690333366E0
1.827893276E1,-3.930211067E-1,2.017747641E0,9.655637741E0
1.829869094E1,-4.229314029E-1,2.062014818E0,9.653244972E0
1.831846505E1,-3.714857101E-1,2.069193363E0,9.617053032E0
1.833818115E1,-3.415754437E-1,2.087139606E0,9.547661781E0
1.835793932E1,-3.355933726E-1,2.138585329E0,9.517750740E0
1.837771583E1,-3.559323549E-1,2.126621008E0,9.559625626E0
1.839746563E1,-3.702892959E-1,2.099103689E0,9.615857124E0
1.841722380E1,-3.930211067E-1,2.101496458E0,9.600303650E0
1.843699964E1,-3.786641955E-1,2.047657967E0,9.632606506E0
1.845676719E1,-4.121637046E-1,2.087139606E0,9.601499557E0
1.847652536E1,-3.774677813E-1,2.073979139E0,9.624231339E0
1.849658974E1,-3.726821244E-1,2.024926186E0,9.634999275E0
1.851601120E1,-3.379862010E-1,2.033301115E0,9.698708534E0
1.853576938E1,-3.559323549E-1,2.121835470E0,9.620642662E0
1.855551016E1,-4.073780477E-1,2.206780672E0,9.485447884E0
1.857527734E1,-3.272185028E-1,2.114656925E0,9.444769859E0
1.859503547E1,-3.056831062E-1,2.088335991E0,9.532108307E0
1.861479432E1,-3.966103494E-1,2.138585329E0,9.524930000E0
1.863456688E1,-4.456632137E-1,2.114656925E0,9.565608025E0
1.865432505E1,-4.073780477E-1,1.971984982E0,9.673583984E0
1.867407583E1,-3.990031779E-1,1.864308000E0,9.838688850E0
1.869384359E1,-3.918247223E-1,1.815255046E0,9.853045464E0
1.871360177E1,-4.671986103E-1,1.865504384E0,9.925128937E0
1.873335708E1,-4.947160780E-1,1.955235243E0,9.807581902E0
1.875311734E1,-4.073780477E-1,2.067996979E0,9.601499557E0
1.877287552E1,-2.659024298E-1,2.198405743E0,9.345169067E0
1.879262505E1,-2.781656384E-1,2.335095882E0,9.262616158E0
1.881241484E1,-3.308077157E-1,2.282453775E0,9.302098274E0
1.883217297E1,-4.049852192E-1,2.169692039E0,9.456734657E0
1.885193328E1,-4.325026870E-1,2.012962103E0,9.669994354E0
1.887166255E1,-4.564309120E-1,1.920539260E0,9.801599503E0
1.889142073E1,-4.456632137E-1,1.877468467E0,9.830313683E0
1.891119865E1,-3.738785386E-1,1.877468467E0,9.778867722E0
1.893094141E1,-2.973082066E-1,1.932503343E0,9.735796928E0
1.895069958E1,-3.475574851E-1,2.042872429E0,9.639784813E0
1.897044016E1,-3.475574851E-1,2.151745796E0,9.516554832E0
1.899018026E1,-3.559323549E-1,2.150549412E0,9.472287178E0
1.900993844E1,-3.415754437E-1,2.101496458E0,9.516554832E0
1.902971401E1,-4.181457460E-1,2.090728760E0,9.566803932E0
1.904946375E1,-4.671986103E-1,2.107478619E0,9.602696419E0
1.906922193E1,-4.384847581E-1,2.091925144E0,9.548857689E0
1.908895849E1,-3.332005441E-1,2.010569334E0,9.594321251E0
1.910871979E1,-3.870390654E-1,2.001895189E0,9.654440880E0
1.912847802E1,-3.523431420E-1,1.973181367E0,9.615857124E0
1.914825469E1,-3.427718580E-1,1.987538338E0,9.702297211E0
1.916797568E1,-3.367897868E-1,2.003091574E0,9.835099220E0
1.918773219E1,-3.810569942E-1,2.036890268E0,9.711869240E0
1.920753000E1,-3.104687333E-1,2.084746838E0,9.532108307E0
1.922728464E1,-3.044866920E-1,2.048854351E0,9.521340370E0
1.924704120E1,-3.451646566E-1,2.064407825E0,9.554840088E0
1.926680271E1,-4.648058116E-1,2.081157446E0,9.649655342E0
1.928656307E1,-5.392823815E-1,2.088335991E0,9.612267494E0
1.930631964E1,-5.452644825E-1,2.083550215E0,9.562018394E0
1.932607458E1,-4.121637046E-1,2.010569334E0,9.558428764E0
1.934579536E1,-3.044866920E-1,1.967199326E0,9.633803368E0
1.936555193E1,-2.889333367E-1,1.993520379E0,9.656833649E0
1.938534677E1,-3.427718580E-1,2.006979942E0,9.624231339E0
1.940505568E1,-3.655036688E-1,2.050050735E0,9.728618622E0
1.942481219E1,-3.667000830E-1,2.034497499E0,9.728618622E0
1.944458193E1,-3.176472187E-1,2.081157446E0,9.617053032E0
1.946439307E1,-3.463610709E-1,2.126621008E0,9.469894409E0
1.948414958E1,-3.619144261E-1,2.127817631E0,9.516554832E0
1.950384026E1,-4.348955154E-1,2.075175524E0,9.589535713E0
1.952360411E1,-4.037888348E-1,2.015354872E0,9.613464355E0
1.954336063E1,-3.846462369E-1,2.023729801E0,9.660423279E0
1.956314562E1,-4.408775866E-1,2.065604210E0,9.642177582E0
1.958290422E1,-4.145565331E-1,2.132603168E0,9.541679382E0
1.960266073E1,-4.157529473E-1,2.100300074E0,9.515357971E0
1.962243995E1,-3.631108403E-1,2.026122570E0,9.630213737E0
1.964215130E1,-2.877369225E-1,2.067996979E0,9.705886841E0
1.966190786E1,-3.248256743E-1,2.030908108E0,9.649655342E0
1.968171026E1,-4.528416991E-1,2.026122570E0,9.655637741E0
1.970143953E1,-3.906283081E-1,1.974377751E0,9.679565430E0
1.972119615E1,-3.511467278E-1,2.014158487E0,9.668798447E0
1.974097724E1,-3.332005441E-1,2.127817631E0,9.523733139E0
1.976072859E1,-4.097708762E-1,2.235494614E0,9.451948166E0
1.978048510E1,-3.451646566E-1,2.146960020E0,9.493823051E0
1.980057724E1,-3.272185028E-1,2.033301115E0,9.673583984E0
1.981998615E1,-3.678964674E-1,2.044068813E0,9.744172096E0
1.983974266E1,-4.121637046E-1,2.062014818E0,9.705886841E0
1.985947943E1,-4.193421602E-1,2.090728760E0,9.544072151E0
1.987924745E1,-3.475574851E-1,2.113460541E0,9.412467003E0
1.989900396E1,-3.762713671E-1,2.108675003E0,9.550054550E0
1.991875161E1,-3.846462369E-1,2.105085611E0,9.608678818E0
1.993855729E1,-3.978067636E-1,2.048854351E0,9.623035431E0
1.995831391E1,-4.133601189E-1,2.042872429E0,9.672387123E0
1.997806328E1,-3.846462369E-1,2.076371908E0,9.675976753E0
1.999781245E1,-4.133601189E-1,2.125424623E0,9.578767776E0
2.001756896E1,-3.954139352E-1,2.124228239E0,9.557232857E0
2.003730547E1,-3.858426511E-1,2.095514536E0,9.590732574E0
2.005705802E1,-3.451646566E-1,2.127817631E0,9.587142944E0
2.007681453E1,-4.037888348E-1,2.125424623E0,9.587142944E0
2.009661661E1,-4.097708762E-1,2.119442701E0,9.565608025E0
2.011670677E1,-3.750749528E-1,2.118246317E0,9.536893845E0
2.013646328E1,-3.655036688E-1,2.082353830E0,9.568000793E0
2.015586635E1,-4.073780477E-1,2.082353830E0,9.677172661E0
2.017562292E1,-4.576273263E-1,2.087139606E0,9.666405678E0
2.019539094E1,-4.217349887E-1,2.106282234E0,9.680762291E0
2.021513661E1,-3.702892959E-1,2.070389748E0,9.554840088E0
2.023489344E1,-2.889333367E-1,2.120639086E0,9.542876244E0
2.025464839E1,-3.678964674E-1,2.145763636E0,9.554840088E0
2.027442021E1,-3.678964674E-1,2.078764677E0,9.603892326E0
2.029417703E1,-3.942175210E-1,2.107478619E0,9.601499557E0
2.031390885E1,-4.265206456E-1,2.077568293E0,9.648459435E0
2.033368031E1,-3.918247223E-1,2.099103689E0,9.569196701E0
2.035343714E1,-3.595215976E-1,2.097907305E0,9.563215256E0
2.037320026E1,-4.013960063E-1,2.107478619E0,9.630213737E0
2.039294588E1,-3.607180119E-1,2.059622049E0,9.664012909E0
2.041270271E1,-3.631108403E-1,2.032104731E0,9.710672379E0
2.043250338E1,-4.085744619E-1,2.097907305E0,9.681958199E0
2.045224724E1,-4.277170599E-1,2.154138565E0,9.570393562E0
2.047200406E1,-3.559323549E-1,2.129014015E0,9.436395645E0
2.049176693E1,-3.391826153E-1,2.184048891E0,9.413662910E0
2.051151250E1,-3.702892959E-1,2.144567251E0,9.483055115E0
2.053126932E1,-4.432703853E-1,2.099103689E0,9.627820969E0
2.055102312E1,-4.205385745E-1,2.046461582E0,9.677172661E0
2.057078838E1,-4.360919297E-1,2.033301115E0,9.710672379E0
2.059054521E1,-3.810569942E-1,2.022533417E0,9.703494072E0
2.061028568E1,-4.360919297E-1,2.077568293E0,9.647262573E0
2.063003115E1,-3.954139352E-1,2.109871387E0,9.612267494E0
2.064978797E1,-3.643072546E-1,2.115853310E0,9.534501076E0
2.066953844E1,-3.690928817E-1,2.148156643E0,9.521340370E0
2.068930969E1,-3.643072546E-1,2.111067772E0,9.562018394E0
2.070906651E1,-3.834498227E-1,2.078764677E0,9.595518112E0
2.072884469E1,-4.109672904E-1,2.059622049E0,9.633803368E0
2.074858010E1,-3.978067636E-1,2.064407825E0,9.660423279E0
2.076833693E1,-4.097708762E-1,2.097907305E0,9.644570351E0
2.078811036E1,-3.918247223E-1,2.115853310E0,9.607481956E0
2.080786281E1,-3.631108403E-1,2.124228239E0,9.534501076E0
2.082761964E1,-3.786641955E-1,2.118246317E0,9.614660263E0
2.084737719E1,-3.690928817E-1,2.103889227E0,9.607481956E0
2.086711838E1,-3.822534084E-1,2.067996979E0,9.615857124E0
2.088687521E1,-3.559323549E-1,2.044068813E0,9.617053032E0
2.090667740E1,-4.061816335E-1,2.054836512E0,9.665208817E0
2.092638411E1,-4.169493318E-1,2.096710920E0,9.650852203E0
2.094614094E1,-3.702892959E-1,2.082353830E0,9.572786331E0
2.096593266E1,-4.025924206E-1,2.172084808E0,9.527322769E0
2.098566740E1,-4.037888348E-1,2.205584288E0,9.518947601E0
2.100542422E1,-3.451646566E-1,2.149353027E0,9.603892326E0
2.102521927E1,-3.367897868E-1,2.048854351E0,9.614660263E0
2.104495552E1,-3.846462369E-1,2.093121529E0,9.715457916E0
2.106471234E1,-4.504488707E-1,2.105085611E0,9.655637741E0
2.108447688E1,-3.439682424E-1,2.079961061E0,9.630213737E0
2.110421271E1,-3.535395563E-1,2.155334949E0,9.471091270E0
2.112396953E1,-3.702892959E-1,2.180459738E0,9.468698502E0
2.114372365E1,-4.552344978E-1,2.175673962E0,9.589535713E0
2.116347464E1,-4.564309120E-1,2.130210400E0,9.646066666E0
2.118323146E1,-3.990031779E-1,2.119442701E0,9.643374443E0
2.120300005E1,-4.085744619E-1,2.099103689E0,9.597910881E0
2.122273276E1,-4.313062727E-1,2.012962103E0,9.506983757E0
2.124248958E1,-3.607180119E-1,2.105085611E0,9.770493507E0
2.126228078E1,-3.607180119E-1,2.090728760E0,9.701101303E0
2.128205906E1,-3.714857101E-1,2.123031855E0,9.468698502E0
2.130181588E1,-4.181457460E-1,2.192423820E0,9.618249893E0
2.132156557E1,-4.229314029E-1,2.124228239E0,9.518947601E0
2.134136583E1,-3.068794906E-1,2.139781713E0,9.618249893E0
2.136112276E1,-3.678964674E-1,2.154138565E0,9.547661781E0
2.138082500E1,-4.025924206E-1,2.120639086E0,9.655637741E0
2.140060542E1,-4.875376225E-1,2.120639086E0,9.609874725E0
2.142036224E1,-4.265206456E-1,2.079961061E0,9.659226418E0
2.144006922E1,-3.702892959E-1,2.054836512E0,9.716654778E0
2.145982776E1,-5.380859971E-1,2.227119684E0,9.660423279E0
2.147958464E1,-4.995017350E-1,2.323131800E0,1.001605606E1
2.149936438E1,-4.743770957E-1,2.091925144E0,9.735796928E0
2.151910839E1,-2.745763958E-1,1.896611094E0,9.788438797E0
2.153886526E1,-3.272185028E-1,2.191227436E0,9.897313118E0
2.155862703E1,-3.355933726E-1,2.321935177E0,9.798010826E0
2.157843391E1,-2.793620527E-1,2.335095882E0,9.680762291E0
2.159819078E1,-2.709871531E-1,2.555534601E0,9.701101303E0
2.161791839E1,-1.211366430E-1,2.650051117E0,9.601499557E0
2.163767151E1,-2.575275302E-1,2.732603550E0,9.405288696E0
2.165742839E1,-2.156531364E-1,2.687139750E0,9.176474571E0
2.167719734E1,-3.427718580E-1,2.801995277E0,9.423234940E0
2.169697755E1,-3.284149170E-1,2.981756210E0,9.789635658E0
2.171673448E1,-2.551347017E-1,3.012862921E0,9.479466438E0
2.173651448E1,-2.721835673E-1,3.171088219E0,9.400503159E0
2.175624609E1,-9.720841795E-2,3.259622574E0,9.227920532E0
2.177600297E1,-2.515454888E-1,3.275176048E0,9.286544800E0
2.179575042E1,-1.450648755E-1,3.422633648E0,9.209974289E0
2.181551411E1,-1.067797095E-1,3.506382465E0,9.030213356E0
2.183527104E1,-2.168495506E-1,3.702893019E0,9.007481575E0
2.185504036E1,-1.414756328E-1,3.814159393E0,9.068498611E0
2.187476953E1,-6.849455088E-2,3.866801500E0,8.944071770E0
2.189452635E1,-8.285148442E-2,3.966402531E0,9.042177200E0
2.191432068E1,-2.072782665E-1,4.074079514E0,8.962018013E0
2.193405599E1,-1.546361595E-1,4.227519512E0,8.718847275E0
2.195381286E1,-1.534397453E-1,4.381856441E0,8.608778000E0
2.197356286E1,-2.000997961E-1,4.397409916E0,8.626724243E0
2.199334833E1,-2.997010350E-1,4.547260284E0,8.703293800E0
2.201310516E1,-2.132603228E-1,4.656133652E0,8.655437469E0
2.203282922E1,-1.642074585E-1,4.602295399E0,8.637491226E0
2.205261276E1,-2.503490746E-1,4.735395908E0,8.592027664E0
2.207236958E1,-1.630110443E-1,4.814359188E0,8.581260681E0
2.209210969E1,-1.438684613E-1,4.862215519E0,8.592027664E0
2.211187089E1,-2.371885478E-1,4.834698200E0,8.476873398E0
2.213162771E1,-2.252244353E-1,4.990530491E0,8.351249695E0
2.215139838E1,-1.043868884E-1,5.079065323E0,8.321339607E0
2.217115281E1,-1.378864050E-1,5.183153152E0,8.289934158E0
2.219090969E1,-1.582254022E-1,5.285147190E0,8.139185905E0
2.221068995E1,-1.833500415E-1,5.306682587E0,8.076972961E0
2.223076682E1,-2.024926096E-1,5.348556995E0,8.018049240E0
2.225052401E1,-1.713859290E-1,5.386841774E0,8.035995483E0
2.226992656E1,-6.131608039E-2,5.484947681E0,7.955836296E0
2.228969510E1,-1.091725305E-1,5.446662426E0,8.051848412E0
2.230945229E1,-1.582254022E-1,5.465805054E0,8.182256699E0
2.232920370E1,-2.733799815E-1,5.480162144E0,8.370392799E0
2.234895714E1,-2.395813614E-1,5.496014595E0,8.239685059E0
2.236871432E1,-6.011966988E-2,5.477769375E0,8.031209946E0
2.238849078E1,-1.175474152E-1,5.498407364E0,8.032406807E0
2.240826099E1,-1.701895148E-1,5.518746376E0,8.051848412E0
2.242801823E1,-7.328019291E-2,5.524728298E0,7.989335537E0
2.244777891E1,-1.977069676E-1,5.744868279E0,7.997710705E0
2.246753115E1,-3.140579537E-2,5.661119461E0,7.868498325E0
2.248728833E1,-9.122636169E-2,5.646762371E0,7.940282822E0
2.250705307E1,-1.618146300E-1,5.695815086E0,8.016853333E0
2.252683885E1,-1.606182158E-1,5.661119461E0,8.060222626E0
2.254659615E1,-1.115653589E-1,5.682654858E0,8.110472679E0
2.256629792E1,-1.055833027E-1,5.679065228E0,7.986942768E0
2.258608099E1,-7.567301393E-2,5.722136021E0,7.961818218E0
2.260583823E1,-4.815555736E-2,5.669494152E0,7.879265785E0
2.262557724E1,-1.055833027E-1,5.730511189E0,7.937890053E0
2.264536042E1,-1.295115203E-1,5.717350483E0,8.012067795E0
2.266511771E1,-9.122636169E-2,5.746064663E0,7.952247143E0
2.268483677E1,-1.199402362E-1,5.707779408E0,7.949853897E0
2.270464276E1,-8.045866340E-2,5.767899036E0,7.893622875E0
2.272439995E1,-5.294119939E-2,5.754738331E0,7.963014603E0
2.274414573E1,4.905286431E-2,5.761917114E0,7.845766544E0
2.276386745E1,-1.426720470E-1,5.737689495E0,8.045866013E0
2.278362469E1,-1.067797095E-1,5.742475033E0,8.070990562E0
2.280340021E1,-9.242277592E-2,5.749653816E0,7.897212029E0
2.282316656E1,-4.456632212E-2,5.753242970E0,7.878069401E0
2.284292375E1,-5.533402413E-2,5.757131100E0,7.832605839E0
2.286266203E1,-1.067797095E-1,5.775077343E0,7.942675591E0
2.288245354E1,-1.163510010E-1,5.807380676E0,7.965407372E0
2.290221083E1,-7.328019291E-2,5.843272686E0,7.898408413E0
2.292196516E1,-8.644071966E-2,5.810969830E0,7.863712311E0
2.294170130E1,-2.422732860E-2,5.706583023E0,7.967800140E0
2.296145849E1,-7.328019291E-2,5.705386639E0,8.112865448E0
2.298123766E1,-1.199402362E-1,5.742475033E0,8.088936806E0
2.300098859E1,-8.644071966E-2,5.767899036E0,7.928318501E0
2.302074578E1,-2.781656384E-2,5.815755367E0,7.677969456E0
2.304049443E1,-7.806584239E-2,5.797809124E0,7.799106121E0
2.306025635E1,-6.729813665E-2,5.776273727E0,7.915158272E0
2.308001354E1,-4.695914313E-2,5.740082264E0,7.958229065E0
2.309977578E1,-7.686942816E-2,5.754738331E0,7.960621834E0
2.311952635E1,-9.840483218E-2,5.718546867E0,8.038388252E0
2.313928354E1,-1.199402362E-1,5.705386639E0,8.149953842E0
2.315904630E1,-7.686942816E-2,5.676672459E0,8.086544037E0
2.317881057E1,-4.695914313E-2,5.693422318E0,8.037192345E0
2.319856776E1,-3.978067636E-2,5.775077343E0,7.929515362E0
2.321834245E1,-1.465603895E-2,5.755934715E0,7.905586720E0
2.323808776E1,-7.208377868E-2,5.771488190E0,7.868498325E0
2.325784510E1,-6.969095767E-2,5.759523869E0,7.868498325E0
2.327760323E1,-6.370890141E-2,5.736493111E0,7.983353615E0
2.329734661E1,-5.413761362E-2,5.701797485E0,7.988139153E0
2.331710396E1,-6.370890141E-2,5.689833164E0,8.014460564E0
2.333686891E1,-8.644071966E-2,5.710172176E0,8.006085396E0
2.335665016E1,-7.567301393E-2,5.702993870E0,7.989335537E0
2.337640750E1,-5.892325938E-2,5.714957714E0,7.963014603E0
2.339614172E1,-3.260220960E-2,5.691029549E0,7.979764462E0
2.341588880E1,-4.456632212E-2,5.682654858E0,7.965407372E0
2.343564615E1,-1.106680464E-2,5.674279690E0,7.988139153E0
2.345539688E1,-9.870393202E-3,5.737689495E0,7.951050758E0
2.347515870E1,-5.772684515E-2,5.699404240E0,7.896015644E0
2.349491604E1,-1.175474152E-1,5.723332882E0,7.867301941E0
2.351467099E1,-4.576273263E-2,5.701797485E0,7.921140194E0
2.353444984E1,-7.477570791E-3,5.612066269E0,8.076972961E0
2.355420719E1,-2.662015148E-2,5.589334488E0,8.098507881E0
2.357395083E1,-4.576273263E-2,5.638387680E0,7.998907089E0
2.359371531E1,-5.892325938E-2,5.622834206E0,7.996514320E0
2.361347266E1,-3.020938672E-2,5.578567028E0,8.148757935E0
2.363324833E1,-7.088737190E-2,5.511568069E0,8.208578110E0
2.365298099E1,-6.251249462E-2,5.524728298E0,8.184649467E0
2.367273833E1,8.374879137E-3,5.541478157E0,8.026424408E0
2.369250281E1,-6.251249462E-2,5.547460079E0,8.110472679E0
2.371225922E1,-9.361918271E-2,5.498407364E0,8.134400368E0
2.373201656E1,-5.653043464E-2,5.496014595E0,7.997710705E0
2.375175698E1,-5.533402413E-2,5.494818211E0,7.978568077E0
2.377151838E1,-3.140579537E-2,5.453841209E0,8.033602715E0
2.379127573E1,-1.704886183E-2,5.468197823E0,8.212167740E0
2.381105682E1,-4.576273263E-2,5.372485161E0,8.285148621E0
2.383078969E1,-6.370890141E-2,5.343770981E0,8.245666504E0
2.385054703E1,-9.870393202E-3,5.279164791E0,8.233702660E0
2.387030740E1,-2.781656384E-2,5.252843857E0,8.321339607E0
2.389004911E1,-1.465603895E-2,5.219344616E0,8.328517914E0
2.390980646E1,-7.447660714E-2,5.226522923E0,8.341678619E0
2.392956323E1,-6.251249462E-2,5.159224510E0,8.402695656E0
2.394933344E1,-5.533402413E-2,5.100600719E0,8.321339607E0
2.396909078E1,-2.901297435E-2,5.056333542E0,8.360821724E0
2.398884729E1,-2.781656384E-2,5.032404900E0,8.478069305E0
2.400862500E1,-6.729813665E-2,4.971388340E0,8.638688087E0
2.402838234E1,-7.208377868E-2,4.908875465E0,8.760722160E0
2.404811021E1,-9.601201117E-2,4.908875465E0,8.674580574E0
2.406786568E1,-4.217349738E-2,4.938786030E0,8.572586060E0
2.408762302E1,-3.379862010E-2,4.949553490E0,8.554639816E0
2.410737047E1,-2.662015148E-2,4.986941338E0,8.583653450E0
2.412712995E1,-8.524430543E-2,4.989334106E0,8.496015549E0
2.414688729E1,-4.456632212E-2,4.997709274E0,8.366803169E0
2.416667198E1,-3.020938672E-2,5.018048286E0,8.354839325E0
2.418641958E1,-6.729813665E-2,5.053940296E0,8.332107544E0
2.420617693E1,-6.370890141E-2,4.965405941E0,8.542675972E0
2.422591823E1,1.076770201E-2,4.954638481E0,8.492426872E0
2.424569375E1,-6.490531564E-2,5.022833824E0,8.384749413E0
2.426545088E1,-7.447660714E-2,5.019244671E0,8.388339043E0
2.428523453E1,-1.824527234E-2,4.898108006E0,8.592027664E0
2.430496120E1,-5.084747914E-3,4.894518852E0,8.698508263E0
2.432471833E1,-4.456632212E-2,4.985744953E0,8.643473625E0
2.434447776E1,-7.926224917E-2,4.952245712E0,8.448159218E0
2.436421359E1,-2.662015148E-2,4.971388340E0,8.354839325E0
2.438397073E1,-2.422732860E-2,5.018048286E0,8.345268250E0
2.440374802E1,-1.187438220E-1,5.056333542E0,8.406285286E0
2.442348495E1,-1.079761237E-1,5.020441055E0,8.372785568E0
2.444324208E1,-1.354935765E-1,4.949553490E0,8.467302322E0
2.446302911E1,-2.063809521E-2,4.934000492E0,8.515158653E0
2.448278297E1,-5.174478889E-2,4.936393261E0,8.527122498E0
2.450254010E1,-9.122636169E-2,4.917250633E0,8.636295319E0
2.452230276E1,-1.175474152E-1,4.929214478E0,8.504390717E0
2.454203313E1,-5.892325938E-2,4.980959415E0,8.443373680E0
2.456179026E1,-4.097708687E-2,4.948357105E0,8.474480629E0
2.458156677E1,-8.763712645E-2,5.022833824E0,8.402695656E0
2.460131974E1,-6.729813665E-2,5.000102043E0,8.365607262E0
2.462107688E1,-5.054837838E-2,5.014459133E0,8.365607262E0
2.464081943E1,-6.849455088E-2,4.983352184E0,8.479266167E0
2.466057182E1,-5.772684515E-2,4.938786030E0,8.580063820E0
2.468032896E1,-8.404789865E-2,4.916054249E0,8.476873398E0
2.470011260E1,-1.151545867E-1,4.970191956E0,8.517551422E0
2.471985344E1,-9.242277592E-2,4.957031250E0,8.485248566E0
2.473961057E1,-5.294119939E-2,4.948357105E0,8.432605743E0
2.475936031E1,-7.567301393E-2,5.018048286E0,8.388339043E0
2.477913115E1,-4.456632212E-2,4.967798710E0,8.448159218E0
2.479888828E1,-8.524430543E-2,5.003691196E0,8.399106979E0
2.481864990E1,-7.208377868E-2,5.002494812E0,8.335697174E0
2.483844901E1,-4.935196787E-2,4.991727352E0,8.385946274E0
2.485820620E1,-6.490531564E-2,4.900500774E0,8.527122498E0
2.487789365E1,-1.546361595E-1,4.919643402E0,8.619544983E0
2.489764943E1,-1.055833027E-1,4.894518852E0,8.567800522E0
2.491740656E1,-3.140579537E-2,4.861019135E0,8.517551422E0
2.493717401E1,-9.122636169E-2,4.888536453E0,8.518747330E0
2.495699948E1,-1.235294715E-1,4.936393261E0,8.587242126E0
2.497675667E1,-8.883354068E-2,4.893322468E0,8.525926590E0
2.499649484E1,-9.361918271E-2,4.846662045E0,8.617152214E0
2.501623599E1,-1.043868884E-1,4.890929699E0,8.668598175E0
2.503599318E1,-7.806584239E-2,4.889732838E0,8.549854279E0
2.505574943E1,-6.131608039E-2,4.929214478E0,8.445766449E0
2.507550974E1,-7.208377868E-2,4.960620403E0,8.263612747E0
2.509526688E1,-1.031904742E-1,4.959424019E0,8.370392799E0
2.511498323E1,-1.151545867E-1,4.886143684E0,8.510373116E0
2.513475339E1,-1.713859290E-1,4.887340069E0,8.570193291E0
2.515451052E1,-1.666002721E-1,4.874179840E0,8.478069305E0
2.517430734E1,-1.091725305E-1,4.871787071E0,8.552247047E0
2.519404312E1,-8.404789865E-2,4.851448059E0,8.572586060E0
2.521380026E1,-9.720841795E-2,4.853840828E0,8.515158653E0
2.523354234E1,-7.447660714E-2,4.900500774E0,8.492426872E0
2.525331677E1,-9.960123897E-2,4.889732838E0,8.490034103E0
2.527307396E1,-1.630110443E-1,4.874179840E0,8.539086342E0
2.529281995E1,-1.474576890E-1,4.858626366E0,8.512765884E0
2.531259698E1,-1.199402362E-1,4.863411903E0,8.555836678E0
2.533235417E1,-1.151545867E-1,4.925625324E0,8.440980911E0
2.535208031E1,-1.462612897E-1,4.907679081E0,8.427820206E0
2.537183615E1,-1.295115203E-1,4.857429981E0,8.487641335E0
2.539159333E1,-1.522433460E-1,4.852644444E0,8.510373116E0
2.541137823E1,-1.486541033E-1,4.807180882E0,8.519944191E0
2.543112266E1,-1.223330572E-1,4.778466702E0,8.553443909E0
2.545087990E1,-1.450648755E-1,4.748556614E0,8.703293800E0
2.547066042E1,-1.187438220E-1,4.688735962E0,8.778668404E0
2.549068016E1,-1.139581800E-1,4.670490742E0,8.705686569E0
2.551043734E1,-1.462612897E-1,4.694717884E0,8.708079338E0
2.552992208E1,-1.283151209E-1,4.674079895E0,8.627920151E0
2.554964036E1,-1.666002721E-1,4.744967461E0,8.559425354E0
2.556939755E1,-1.307079345E-1,4.717449665E0,8.560622215E0
2.558919578E1,-8.763712645E-2,4.744967461E0,8.564210892E0
2.560894375E1,-1.594218016E-1,4.766502857E0,8.539086342E0
2.562870094E1,-1.354935765E-1,4.711467743E0,8.545068741E0
2.564846656E1,-9.242277592E-2,4.650151730E0,8.578866959E0
2.566821391E1,-1.079761237E-1,4.622634411E0,8.586046219E0
2.568797115E1,-8.763712645E-2,4.613062859E0,8.656634331E0
2.570770536E1,-6.610172242E-2,4.514957428E0,8.685347557E0
2.572747380E1,-1.307079345E-1,4.597509384E0,8.700901031E0
2.574723099E1,-9.002995491E-2,4.534099579E0,8.631509781E0
2.576701786E1,-2.072782665E-1,4.552045822E0,8.626724243E0
2.578675208E1,-2.240280211E-1,4.508975029E0,8.703293800E0
2.580650927E1,-1.570289880E-1,4.381856441E0,8.766703606E0
2.582628542E1,-2.108674943E-1,4.402195454E0,8.790632248E0
2.584601536E1,-1.989033818E-1,4.411766529E0,8.752346992E0
2.586577255E1,-1.414756328E-1,4.369892120E0,8.751151085E0
2.588554323E1,-1.953141540E-1,4.389034748E0,8.963214874E0
2.590534073E1,-1.235294715E-1,4.210769653E0,9.021839142E0
2.592509797E1,-1.067797095E-1,4.115953922E0,8.910572052E0
2.594482109E1,-1.689931005E-1,4.126721859E0,8.996713638E0
2.596456453E1,-1.821536273E-1,4.149752617E0,8.960822105E0
2.598432172E1,-1.522433460E-1,4.145864487E0,8.935696602E0
2.600407495E1,-1.630110443E-1,4.144668102E0,8.946464539E0
2.602384375E1,-1.331007630E-1,4.064508438E0,8.933303833E0
2.604360094E1,-1.378864050E-1,4.044169426E0,8.976374626E0
2.606335812E1,-2.036890239E-1,4.032205105E0,9.030213356E0
2.608308552E1,-1.809572130E-1,4.022634029E0,9.024231911E0
2.610284271E1,-1.797607988E-1,4.021437645E0,8.996713638E0
2.612262443E1,-9.960123897E-2,3.929313898E0,8.995517731E0
2.614238745E1,-7.806584239E-2,3.931706667E0,8.951250076E0
2.616214464E1,-6.131608039E-2,3.911367655E0,8.994320869E0
2.618189443E1,-1.199402362E-1,3.930510283E0,8.979964256E0
2.620167516E1,-1.259222925E-1,3.934099436E0,8.966803551E0
2.622143240E1,-1.139581800E-1,3.891028643E0,9.034998894E0
2.624119510E1,-1.630110443E-1,3.860819340E0,8.984749794E0
2.626091641E1,-1.175474152E-1,3.836891174E0,9.029017448E0
2.628067375E1,-1.331007630E-1,3.842873096E0,9.157332420E0
2.630044547E1,-1.881356835E-1,3.832105398E0,9.265008926E0
2.632018745E1,-1.558325738E-1,3.719642878E0,9.169296265E0
2.633994479E1,-3.738785535E-2,3.645465374E0,9.033802986E0
2.635970750E1,-1.211366430E-1,3.717249870E0,9.087641716E0
2.637944964E1,-1.773679852E-1,3.796213150E0,9.205188751E0
2.639920698E1,-1.390828192E-1,3.705285788E0,9.091230392E0
2.641898693E1,-1.498505175E-1,3.718446493E0,8.947661400E0
2.643874609E1,-2.120639086E-1,3.775874138E0,9.045766830E0
2.645850338E1,-1.881356835E-1,3.743571043E0,9.099605560E0
2.647825828E1,-1.785643846E-1,3.705285788E0,9.105587006E0
2.649800495E1,-1.701895148E-1,3.712464333E0,9.100801468E0
2.651776229E1,-1.713859290E-1,3.682554007E0,9.141778946E0
2.653750297E1,-1.378864050E-1,3.695714474E0,9.166903496E0
2.655730193E1,-1.654038578E-1,3.639483213E0,9.128618240E0
2.657705927E1,-1.689931005E-1,3.706482172E0,9.111868858E0
2.659681068E1,-1.606182158E-1,3.713660717E0,9.073284149E0
2.661660224E1,-1.175474152E-1,3.655036688E0,8.979964256E0
2.663635953E1,-1.283151209E-1,3.611666679E0,9.129815102E0
2.665606984E1,-1.666002721E-1,3.674179077E0,9.194420815E0
2.667583547E1,-1.570289880E-1,3.704089403E0,9.023035049E0
2.669559276E1,-2.156531364E-1,3.714857101E0,9.068498611E0
2.671533323E1,-2.144567221E-1,3.712464333E0,9.088837624E0
2.673509208E1,-1.271187067E-1,3.597309828E0,9.070891380E0
2.675484938E1,-2.108674943E-1,3.667000771E0,9.150154114E0
2.677459057E1,-1.797607988E-1,3.614358664E0,9.187242508E0
2.679439094E1,-2.048854381E-1,3.566203117E0,9.211171150E0
2.681414823E1,-1.977069676E-1,3.573381424E0,9.304491043E0
2.683385443E1,-2.180459648E-1,3.591327667E0,9.323633194E0
2.685360943E1,-2.383849621E-1,3.650250912E0,9.336793900E0
2.687336677E1,-3.224328458E-1,3.699303865E0,9.072088242E0
2.689313786E1,-2.216351926E-1,3.669393539E0,9.048159599E0
2.691289490E1,-7.477570791E-3,3.639483213E0,8.853144646E0
2.693265224E1,2.751746029E-2,3.610470295E0,9.019445419E0
2.695239583E1,-1.450648755E-1,3.690928936E0,9.103194237E0
2.697216427E1,-2.781656384E-1,3.728017569E0,9.141778946E0
2.699192161E1,-2.635096014E-1,3.631108284E0,9.273384094E0
2.701169068E1,-3.020938635E-1,3.701696634E0,9.342776299E0
2.703142396E1,-2.805584669E-1,3.722035646E0,9.251849174E0
2.705118130E1,-1.701895148E-1,3.712464333E0,9.092427254E0
2.707092974E1,-1.977069676E-1,3.747160196E0,8.857930183E0
2.709070443E1,-1.953141540E-1,3.763910055E0,8.865108490E0
2.711046172E1,-1.989033818E-1,3.750749588E0,9.030213356E0
2.713053510E1,-2.853440940E-1,3.791427374E0,9.145368576E0
2.714996479E1,-2.805584669E-1,3.690928936E0,9.163313866E0
2.716972214E1,-2.659024298E-1,3.710071564E0,9.177671432E0
2.718945083E1,-2.925225794E-1,3.730410576E0,9.163313866E0
2.720921521E1,-2.697907388E-1,3.736392498E0,9.104391098E0
2.722897255E1,-2.443670183E-1,3.786641836E0,9.000303268E0
2.724874630E1,-2.144567221E-1,3.800998688E0,8.985946655E0
2.726852422E1,-3.068794906E-1,3.848855257E0,9.148957253E0
2.728828130E1,-3.152543902E-1,3.833301783E0,9.097212791E0
2.730801182E1,-3.020938635E-1,3.781856298E0,9.031410217E0
2.732776188E1,-2.670988142E-1,3.800998688E0,9.031410217E0
2.734751891E1,-2.635096014E-1,3.753142357E0,9.011071205E0
2.736726896E1,-2.721835673E-1,3.775874138E0,9.109176636E0
2.738704245E1,-2.949153781E-1,3.810570002E0,9.036195755E0
2.740679948E1,-2.587239444E-1,3.791427374E0,9.062516212E0
2.742655844E1,-2.539383173E-1,3.784249067E0,9.050552368E0
2.744671849E1,-2.587239444E-1,3.785445452E0,9.052945137E0
2.746647557E1,-2.805584669E-1,3.818944931E0,9.058927536E0
2.748581573E1,-2.503490746E-1,3.821337700E0,9.048159599E0
2.750559094E1,-3.236292601E-1,3.824927092E0,8.996713638E0
2.752534797E1,-2.973082066E-1,3.815355778E0,9.025427818E0
2.754507068E1,-2.793620527E-1,3.765106440E0,9.060123444E0
2.756485271E1,-2.611167729E-1,3.763910055E0,9.123832703E0
2.758460974E1,-3.367897868E-1,3.812962770E0,9.117850304E0
2.760437844E1,-3.415754437E-1,3.870390654E0,9.021839142E0
2.762411219E1,-2.841476798E-1,3.822534084E0,9.006285667E0
2.764386922E1,-2.769692242E-1,3.796213150E0,9.088837624E0
2.766361026E1,-2.865405083E-1,3.786641836E0,9.183652878E0
2.768338359E1,-3.284149170E-1,3.852444410E0,9.131011009E0
2.770314063E1,-2.733799815E-1,3.862015724E0,8.962018013E0
2.772288125E1,-2.853440940E-1,3.842873096E0,8.918947220E0
2.774264708E1,-2.599203587E-1,3.814159393E0,8.909376144E0
2.776240411E1,-3.379862010E-1,3.838087559E0,8.982357025E0
2.778220766E1,-3.726821244E-1,3.835694790E0,9.057730675E0
2.780194380E1,-3.762713671E-1,3.828516245E0,9.103194237E0
2.782170083E1,-2.901297510E-1,3.720839262E0,9.164510727E0
2.784142557E1,-3.056831062E-1,3.743571043E0,9.223134995E0
2.786119068E1,-3.056831062E-1,3.791427374E0,9.046963692E0
2.788094776E1,-2.949153781E-1,3.853640795E0,8.979964256E0
2.790071391E1,-2.781656384E-1,3.800998688E0,8.950054169E0
2.792047088E1,-2.853440940E-1,3.832105398E0,9.045766830E0
2.794022792E1,-3.403790295E-1,3.812962770E0,9.091230392E0
2.795998651E1,-3.020938635E-1,3.753142357E0,9.081659317E0
2.797973661E1,-3.272185028E-1,3.768695593E0,9.097212791E0
2.799949365E1,-3.056831062E-1,3.731606960E0,9.087641716E0
2.801925104E1,-3.152543902E-1,3.755535126E0,9.086444855E0
2.803901255E1,-2.937189937E-1,3.718446493E0,9.126225471E0
2.805876958E1,-3.152543902E-1,3.738785267E0,9.113064766E0
2.807852484E1,-3.882354796E-1,3.820141315E0,9.076873779E0
2.809828917E1,-3.080759048E-1,3.830909014E0,9.038588524E0
2.811804620E1,-2.431706041E-1,3.713660717E0,9.017052650E0
2.813779172E1,-2.697907388E-1,3.728017569E0,9.031410217E0
2.815754495E1,-3.200400174E-1,3.714857101E0,9.074481010E0
2.817730198E1,-3.511467278E-1,3.749552965E0,9.165707588E0
2.819703635E1,-3.308077157E-1,3.749552965E0,9.129815102E0
2.821680583E1,-3.020938635E-1,3.676572084E0,9.070891380E0
2.823656286E1,-2.697907388E-1,3.702893019E0,9.064909935E0
2.825636870E1,-3.224328458E-1,3.765106440E0,9.046963692E0
2.827607547E1,-3.032902777E-1,3.747160196E0,9.119047165E0
2.829583260E1,-3.236292601E-1,3.696911097E0,9.136993408E0
2.831559380E1,-2.647060156E-1,3.688536167E0,9.123832703E0
2.833538521E1,-2.925225794E-1,3.716053486E0,9.115457535E0
2.835514229E1,-3.188436031E-1,3.737588882E0,9.082855225E0
2.837485833E1,-2.539383173E-1,3.722035646E0,8.945268631E0
2.839463276E1,-3.320041299E-1,3.725624800E0,9.011071205E0
2.841438984E1,-3.391826153E-1,3.684946775E0,9.131011009E0
2.843414266E1,-3.571287692E-1,3.650250912E0,9.166903496E0
2.845388630E1,-3.678964674E-1,3.605684519E0,9.239884377E0
2.847364339E1,-3.535395563E-1,3.635894060E0,9.180064201E0
2.849340797E1,-3.332005441E-1,3.645465374E0,9.133403778E0
2.851314547E1,-2.985046208E-1,3.609273911E0,9.084052086E0
2.853290255E1,-2.817548811E-1,3.677768469E0,9.144171715E0
2.855266083E1,-3.056831062E-1,3.692125320E0,9.172885895E0
2.857242573E1,-3.379862010E-1,3.668197155E0,9.134600639E0
2.859218281E1,-3.260220885E-1,3.674179077E0,9.038588524E0
2.861194542E1,-3.116651475E-1,3.688536167E0,9.013463974E0
2.863170844E1,-3.367897868E-1,3.633501291E0,9.141778946E0
2.865146552E1,-3.200400174E-1,3.611666679E0,9.127422333E0
2.867121130E1,-3.104687333E-1,3.592524052E0,9.135796547E0
2.869095807E1,-3.116651475E-1,3.575774431E0,9.213563919E0
2.871071516E1,-3.607180119E-1,3.592524052E0,9.227920532E0
2.873048422E1,-3.224328458E-1,3.609273911E0,9.151350021E0
2.875022688E1,-2.973082066E-1,3.625126362E0,9.074481010E0
2.876998396E1,-3.044866920E-1,3.620340586E0,9.132207870E0
2.878975328E1,-3.104687333E-1,3.594916821E0,9.087641716E0
2.880948432E1,-3.595215976E-1,3.606881142E0,9.190832138E0
2.882924141E1,-3.248256743E-1,3.555435419E0,9.203991890E0
2.884901677E1,-3.008974493E-1,3.561417341E0,9.114261627E0
2.886876620E1,-3.200400174E-1,3.627519131E0,9.109176636E0
2.888852328E1,-3.643072546E-1,3.632304668E0,9.163313866E0
2.890830443E1,-3.332005441E-1,3.573381424E0,9.201599121E0
2.892804047E1,-2.973082066E-1,3.521935940E0,9.238688469E0
2.894779755E1,-3.236292601E-1,3.587738514E0,9.207581520E0
2.896757000E1,-3.678964674E-1,3.628715515E0,9.163313866E0
2.898731865E1,-2.925225794E-1,3.599702597E0,9.013463974E0
2.900707573E1,-3.128615618E-1,3.641875982E0,9.003892899E0
2.902683849E1,-3.164508045E-1,3.615555048E0,9.029017448E0
2.904663260E1,-3.463610709E-1,3.587738514E0,9.162117958E0
2.906638974E1,-4.049852192E-1,3.592524052E0,9.256634712E0
2.908614838E1,-3.511467278E-1,3.585345745E0,9.202795982E0
2.910583297E1,-3.547359705E-1,3.527917862E0,9.259027481E0
2.912559005E1,-3.140579760E-1,3.544667721E0,9.175278664E0
2.914538682E1,-3.056831062E-1,3.593720436E0,9.125029564E0
2.916510438E1,-2.889333367E-1,3.603291750E0,9.113064766E0
2.918486146E1,-3.164508045E-1,3.581756353E0,9.171689034E0
2.920462370E1,-3.248256743E-1,3.610470295E0,9.145368576E0
2.922440260E1,-3.104687333E-1,3.596113443E0,9.171689034E0
2.924415969E1,-3.391826153E-1,3.591327667E0,9.107980728E0
2.926388245E1,-3.104687333E-1,3.586542130E0,9.135796547E0
2.928364338E1,-3.487538993E-1,3.586542130E0,9.106783867E0
2.930340010E1,-3.128615618E-1,3.570988655E0,9.172885895E0
2.932317807E1,-3.367897868E-1,3.562613726E0,9.188439369E0
2.934293469E1,-3.427718580E-1,3.603291750E0,9.134600639E0
2.936269135E1,-3.200400174E-1,3.566203117E0,9.163313866E0
2.938246219E1,-3.236292601E-1,3.581756353E0,9.136993408E0
2.940219786E1,-2.769692242E-1,3.605684519E0,9.072088242E0
2.942195458E1,-2.781656384E-1,3.594916821E0,9.129815102E0
2.944173365E1,-3.403790295E-1,3.587738514E0,9.141778946E0
2.946154838E1,-3.296113312E-1,3.579363585E0,9.186046600E0
2.948130505E1,-3.140579760E-1,3.550649643E0,9.164510727E0
2.950097568E1,-3.020938635E-1,3.568595886E0,9.146564484E0
2.952073464E1,-3.415754437E-1,3.623929977E0,9.128618240E0
2.954049135E1,-3.128615618E-1,3.587738514E0,9.174081802E0
2.956060396E1,-3.032902777E-1,3.524328709E0,9.209974289E0
2.957998219E1,-2.877369225E-1,3.548256874E0,9.229117393E0
2.959973891E1,-3.176472187E-1,3.620340586E0,9.154939651E0
2.961949203E1,-3.236292601E-1,3.597309828E0,9.048159599E0
2.963926490E1,-2.949153781E-1,3.603291750E0,9.009874344E0
2.965902161E1,-3.008974493E-1,3.573381424E0,9.042177200E0
2.967876359E1,-3.367897868E-1,3.513561010E0,9.226723671E0
2.969853146E1,-3.595215976E-1,3.536292791E0,9.231510162E0
2.971828812E1,-3.714857101E-1,3.556631804E0,9.217152596E0
2.973804406E1,-3.104687333E-1,3.520739317E0,9.186046600E0
2.975781344E1,-3.068794906E-1,3.532703638E0,9.238688469E0
2.977757016E1,-3.667000830E-1,3.548256874E0,9.224330902E0
2.979729542E1,-3.068794906E-1,3.567399502E0,9.175278664E0
2.981708338E1,-2.997010350E-1,3.604488134E0,9.092427254E0
2.983684010E1,-2.503490746E-1,3.602095366E0,9.080462456E0
2.985664062E1,-3.260220885E-1,3.559024572E0,9.120243073E0
2.987669031E1,-3.332005441E-1,3.588934898E0,9.152546883E0
2.989644703E1,-3.068794906E-1,3.610470295E0,9.158528328E0
2.991587448E1,-3.272185028E-1,3.561417341E0,9.114261627E0
2.993563120E1,-2.685943544E-1,3.547060490E0,9.114261627E0
2.995538672E1,-3.427718580E-1,3.539881945E0,9.198010445E0
2.997509276E1,-3.020938635E-1,3.557828188E0,9.194420815E0
2.999484948E1,-3.272185028E-1,3.565006733E0,9.182456970E0
3.001463812E1,-2.733799815E-1,3.512364626E0,9.175278664E0
3.003442130E1,-2.635096014E-1,3.533900023E0,9.145368576E0
3.005417802E1,-2.913261652E-1,3.530310631E0,9.184849739E0
3.007387328E1,-3.056831062E-1,3.545864105E0,9.107980728E0
3.009363786E1,-3.116651475E-1,3.556631804E0,9.181260109E0
3.011339458E1,-3.355933726E-1,3.567399502E0,9.177671432E0
3.013316234E1,-2.829512656E-1,3.544667721E0,9.126225471E0
3.015293578E1,-3.020938635E-1,3.578167200E0,9.120243073E0
3.017269245E1,-2.973082066E-1,3.567399502E0,9.171689034E0
3.019247599E1,-2.757728100E-1,3.512364626E0,9.242277145E0
3.021219479E1,-2.503490746E-1,3.517150164E0,9.275776863E0
3.023195156E1,-2.841476798E-1,3.568595886E0,9.202795982E0
3.025172078E1,-2.937189937E-1,3.574577808E0,9.192028046E0
3.027144599E1,-2.925225794E-1,3.541078329E0,9.098408699E0
3.029120260E1,-2.961117923E-1,3.525525093E0,9.084052086E0
3.031097073E1,-2.793620527E-1,3.539881945E0,9.098408699E0
3.033071875E1,-3.487538993E-1,3.557828188E0,9.152546883E0
3.035047542E1,-3.415754437E-1,3.562613726E0,9.166903496E0
3.037055969E1,-2.997010350E-1,3.538685560E0,9.159725189E0
3.038997219E1,-2.949153781E-1,3.518346548E0,9.175278664E0
3.040972875E1,-3.008974493E-1,3.482454300E0,9.244669914E0
3.042950396E1,-2.997010350E-1,3.487239838E0,9.243474007E0
3.044926823E1,-3.068794906E-1,3.526721478E0,9.224330902E0
3.046902484E1,-2.853440940E-1,3.531507015E0,9.152546883E0
3.048878333E1,-2.733799815E-1,3.580559969E0,9.088837624E0
3.050855359E1,-2.793620527E-1,3.570988655E0,9.067302704E0
3.052831021E1,-2.949153781E-1,3.575774431E0,9.127422333E0
3.054806740E1,-2.865405083E-1,3.553042412E0,9.163313866E0
3.056782646E1,-2.997010350E-1,3.523132324E0,9.181260109E0
3.058758302E1,-3.092723191E-1,3.524328709E0,9.223134995E0
3.060732885E1,-3.212364316E-1,3.532703638E0,9.183652878E0
3.062708052E1,-2.985046208E-1,3.538685560E0,9.175278664E0
3.064683714E1,-2.805584669E-1,3.550649643E0,9.194420815E0
3.066661771E1,-2.623131871E-1,3.536292791E0,9.110671997E0
3.068673573E1,-2.769692242E-1,3.526721478E0,9.152546883E0
3.070649229E1,-2.889333367E-1,3.529114246E0,9.218349457E0
3.072588719E1,-3.116651475E-1,3.536292791E0,9.188439369E0
3.074563755E1,-3.487538993E-1,3.566203117E0,9.162117958E0
3.076539417E1,-2.913261652E-1,3.519542933E0,9.184849739E0
3.078514823E1,-2.599203587E-1,3.539881945E0,9.125029564E0
3.080489740E1,-2.877369225E-1,3.603291750E0,9.088837624E0
3.082465401E1,-3.308077157E-1,3.590131283E0,9.134600639E0
3.084445078E1,-2.781656384E-1,3.520739317E0,9.219545364E0
3.086417255E1,-2.228316069E-1,3.458526134E0,9.290133476E0
3.088392922E1,-2.925225794E-1,3.530310631E0,9.290133476E0
3.090371885E1,-3.104687333E-1,3.556631804E0,9.147761345E0
3.092346958E1,-2.709871531E-1,3.545864105E0,9.057730675E0
3.094322620E1,-2.539383173E-1,3.531507015E0,9.109176636E0
3.096297573E1,-2.973082066E-1,3.554239035E0,9.084052086E0
3.098273844E1,-3.499503136E-1,3.543471336E0,9.119047165E0
3.100249500E1,-3.463610709E-1,3.512364626E0,9.196813583E0
3.102226964E1,-3.320041299E-1,3.481257915E0,9.275776863E0
3.104203359E1,-3.008974493E-1,3.517150164E0,9.227920532E0
3.106179021E1,-2.829512656E-1,3.509971619E0,9.165707588E0
3.108152052E1,-2.745763958E-1,3.531507015E0,9.168100357E0
3.110134193E1,-2.659024298E-1,3.565006733E0,9.128618240E0
3.112109854E1,-3.092723191E-1,3.573381424E0,9.140582085E0
3.114080750E1,-3.092723191E-1,3.578167200E0,9.172885895E0
3.116056547E1,-3.104687333E-1,3.547060490E0,9.141778946E0
3.118032203E1,-3.188436031E-1,3.523132324E0,9.192028046E0
3.120007172E1,-3.056831062E-1,3.523132324E0,9.215956688E0
3.121984661E1,-2.901297510E-1,3.513561010E0,9.133403778E0
3.123960318E1,-3.056831062E-1,3.533900023E0,9.153742790E0
3.125935219E1,-3.296113312E-1,3.535096407E0,9.174081802E0
3.127912969E1,-3.236292601E-1,3.544667721E0,9.196813583E0
3.129888667E1,-3.020938635E-1,3.532703638E0,9.172885895E0
3.131862849E1,-3.008974493E-1,3.554239035E0,9.172885895E0
3.133841109E1,-2.877369225E-1,3.532703638E0,9.181260109E0
3.135816813E1,-3.176472187E-1,3.521935940E0,9.195617676E0
3.137789177E1,-3.415754437E-1,3.536292791E0,9.201599121E0
3.139766146E1,-3.260220885E-1,3.556631804E0,9.180064201E0
3.141741844E1,-3.020938635E-1,3.533900023E0,9.152546883E0
3.143719260E1,-3.128615618E-1,3.570988655E0,9.088837624E0
3.145698932E1,-3.236292601E-1,3.615555048E0,9.068498611E0
3.147674635E1,-3.044866920E-1,3.581756353E0,9.103194237E0
3.149647750E1,-3.284149170E-1,3.515953779E0,9.272188187E0
3.151621823E1,-3.248256743E-1,3.505186081E0,9.311669350E0
3.153597526E1,-3.355933726E-1,3.550649643E0,9.236295700E0
3.155572068E1,-3.056831062E-1,3.526721478E0,9.131011009E0
3.157551073E1,-3.176472187E-1,3.511168242E0,9.150154114E0
3.159526776E1,-3.296113312E-1,3.533900023E0,9.132207870E0
3.161498484E1,-3.535395563E-1,3.513561010E0,9.176474571E0
3.163473661E1,-3.547359705E-1,3.533900023E0,9.162117958E0
3.165449359E1,-3.846462369E-1,3.559024572E0,9.156135559E0
3.167428396E1,-3.499503136E-1,3.554239035E0,9.142974854E0
3.169403495E1,-3.702892959E-1,3.570988655E0,9.157332420E0
3.171379193E1,-3.164508045E-1,3.559024572E0,9.088837624E0
3.173352703E1,-2.841476798E-1,3.538685560E0,9.116654396E0
3.175330589E1,-3.272185028E-1,3.547060490E0,9.180064201E0
3.177306286E1,-3.726821244E-1,3.538685560E0,9.203991890E0
3.179279417E1,-3.487538993E-1,3.508775234E0,9.254241943E0
3.181258755E1,-3.332005441E-1,3.495614767E0,9.261420250E0
3.183234453E1,-3.583251834E-1,3.539881945E0,9.175278664E0
3.185208510E1,-3.607180119E-1,3.580559969E0,9.096015930E0
3.187187578E1,-3.559323549E-1,3.586542130E0,9.081659317E0
3.189163281E1,-3.260220885E-1,3.574577808E0,9.141778946E0
3.191135292E1,-3.236292601E-1,3.555435419E0,9.117850304E0
3.193112838E1,-3.714857101E-1,3.585345745E0,9.152546883E0
3.195088542E1,-3.200400174E-1,3.521935940E0,9.242277145E0
3.197063193E1,-2.599203587E-1,3.505186081E0,9.170493126E0
3.199074307E1,-2.913261652E-1,3.471686602E0,9.190832138E0
3.201050005E1,-3.607180119E-1,3.502793312E0,9.207581520E0
3.202988781E1,-4.241278172E-1,3.569792271E0,9.192028046E0
3.204967870E1,-3.092723191E-1,3.524328709E0,9.165707588E0
3.206943568E1,-3.032902777E-1,3.567399502E0,9.081659317E0
3.208918339E1,-2.853440940E-1,3.598506212E0,9.029017448E0
3.210891792E1,-3.212364316E-1,3.560220957E0,9.116654396E0
3.212867490E1,-3.439682424E-1,3.450151205E0,9.300901413E0
3.214847813E1,-3.248256743E-1,3.396312714E0,9.453145027E0
3.216819615E1,-3.762713671E-1,3.496811152E0,9.354740143E0
3.218795312E1,-3.355933726E-1,3.541078329E0,9.094820023E0
3.220773198E1,-2.745763958E-1,3.530310631E0,8.968000412E0
3.222747990E1,-2.793620527E-1,3.551846027E0,9.012267113E0
3.224723688E1,-4.157529473E-1,3.553042412E0,9.217152596E0
3.226699417E1,-4.193421602E-1,3.495614767E0,9.229117393E0
3.228678812E1,-3.798605800E-1,3.514757395E0,9.171689034E0
3.230654526E1,-2.901297510E-1,3.458526134E0,9.138189316E0
3.232629734E1,-3.164508045E-1,3.469293833E0,9.213563919E0
3.234605859E1,-3.702892959E-1,3.484847069E0,9.230313301E0
3.236581583E1,-3.499503136E-1,3.514757395E0,9.250652313E0
3.238557995E1,-3.224328458E-1,3.517150164E0,9.164510727E0
3.240531661E1,-3.308077157E-1,3.541078329E0,9.034998894E0
3.242507380E1,-3.320041299E-1,3.514757395E0,9.145368576E0
3.244483917E1,-3.439682424E-1,3.490829229E0,9.249456406E0
3.246458635E1,-3.332005441E-1,3.439383507E0,9.305686951E0
3.248434354E1,-3.583251834E-1,3.469293833E0,9.245866776E0
3.250408349E1,-3.643072546E-1,3.507578850E0,9.232706070E0
3.252384365E1,-3.559323549E-1,3.505186081E0,9.180064201E0
3.254360083E1,-3.559323549E-1,3.520739317E0,9.184849739E0
3.256338161E1,-2.841476798E-1,3.520739317E0,9.106783867E0
3.258310995E1,-3.068794906E-1,3.529114246E0,9.141778946E0
3.260286714E1,-3.343969584E-1,3.532703638E0,9.133403778E0
3.262263229E1,-3.080759048E-1,3.496811152E0,9.171689034E0
3.264242344E1,-3.272185028E-1,3.466900826E0,9.223134995E0
3.266218063E1,-3.667000830E-1,3.480061531E0,9.254241943E0
3.268193521E1,-3.296113312E-1,3.448954821E0,9.237491608E0
3.270171172E1,-3.116651475E-1,3.492025614E0,9.200403214E0
3.272146891E1,-3.523431420E-1,3.526721478E0,9.177671432E0
3.274126844E1,-3.391826153E-1,3.559024572E0,9.131011009E0
3.276097615E1,-2.997010350E-1,3.495614767E0,9.194420815E0
3.278073333E1,-3.260220885E-1,3.457329512E0,9.266205788E0
3.280050536E1,-2.889333367E-1,3.458526134E0,9.346364975E0
3.282022135E1,-3.427718580E-1,3.492025614E0,9.266205788E0
3.283997854E1,-2.937189937E-1,3.512364626E0,9.116654396E0
3.285975818E1,-2.949153781E-1,3.511168242E0,9.055337906E0
3.287952266E1,-3.260220885E-1,3.515953779E0,9.100801468E0
3.289927984E1,-3.930211067E-1,3.542274714E0,9.175278664E0
3.291904401E1,-3.774677813E-1,3.520739317E0,9.127422333E0
3.293877224E1,-3.547359705E-1,3.509971619E0,9.217152596E0
3.295852943E1,-3.320041299E-1,3.452543974E0,9.284152031E0
3.297832156E1,-3.248256743E-1,3.462115288E0,9.266205788E0
3.299806911E1,-3.188436031E-1,3.482454300E0,9.237491608E0
3.301782630E1,-3.296113312E-1,3.517150164E0,9.209974289E0
3.303757755E1,-3.116651475E-1,3.517150164E0,9.174081802E0
3.305736724E1,-3.152543902E-1,3.549453259E0,9.104391098E0
3.307712443E1,-2.841476798E-1,3.551846027E0,9.081659317E0
3.309686583E1,-2.901297510E-1,3.525525093E0,9.115457535E0
3.311663682E1,-3.475574851E-1,3.498007536E0,9.208778381E0
3.313639406E1,-3.260220885E-1,3.462115288E0,9.248259544E0
3.315617182E1,-3.463610709E-1,3.428615808E0,9.315258980E0
3.317588990E1,-3.583251834E-1,3.453740358E0,9.316454887E0
3.319564708E1,-3.583251834E-1,3.476472139E0,9.263813019E0
3.321540172E1,-3.164508045E-1,3.537489176E0,9.145368576E0
3.323516141E1,-2.853440940E-1,3.549453259E0,9.060123444E0
3.325491859E1,-2.841476798E-1,3.525525093E0,9.066105843E0
3.327468516E1,-3.020938635E-1,3.513561010E0,9.171689034E0
3.329444635E1,-3.308077157E-1,3.476472139E0,9.225527763E0
3.331420370E1,-3.667000830E-1,3.460918903E0,9.273384094E0
3.333395823E1,-3.140579760E-1,3.442972660E0,9.220742226E0
3.335371266E1,-2.769692242E-1,3.469293833E0,9.189635277E0
3.337347000E1,-3.248256743E-1,3.506382465E0,9.162117958E0
3.339321292E1,-3.188436031E-1,3.526721478E0,9.169296265E0
3.341295516E1,-3.224328458E-1,3.489632607E0,9.212367058E0
3.343271250E1,-3.128615618E-1,3.452543974E0,9.235098839E0
3.345249391E1,-3.188436031E-1,3.514757395E0,9.207581520E0
3.347225297E1,-2.769692242E-1,3.529114246E0,9.169296265E0
3.349201031E1,-3.140579760E-1,3.488436222E0,9.114261627E0
3.351178573E1,-3.355933726E-1,3.494418383E0,9.129815102E0
3.353154089E1,-3.439682424E-1,3.469293833E0,9.189635277E0
3.355129823E1,-3.308077157E-1,3.463311672E0,9.211171150E0
3.357104641E1,-3.439682424E-1,3.469293833E0,9.211171150E0
3.359078057E1,-3.858426511E-1,3.488436222E0,9.227920532E0
3.361053792E1,-3.523431420E-1,3.462115288E0,9.233902931E0
3.363030698E1,-2.997010350E-1,3.486043453E0,9.186046600E0
3.365006724E1,-3.296113312E-1,3.514757395E0,9.138189316E0
3.366982458E1,-2.973082066E-1,3.480061531E0,9.135796547E0
3.368957901E1,-3.104687333E-1,3.512364626E0,9.176474571E0
3.370932078E1,-3.355933726E-1,3.476472139E0,9.207581520E0
3.372907812E1,-3.559323549E-1,3.474079370E0,9.236295700E0
3.374883969E1,-3.882354796E-1,3.464508057E0,9.230313301E0
3.376860349E1,-3.583251834E-1,3.456133127E0,9.249456406E0
3.378836083E1,-3.499503136E-1,3.438187122E0,9.299705505E0
3.380810833E1,-3.762713671E-1,3.471686602E0,9.238688469E0
3.382788141E1,-3.248256743E-1,3.488436222E0,9.127422333E0
3.384763875E1,-3.044866920E-1,3.486043453E0,9.128618240E0
3.386736547E1,-3.104687333E-1,3.512364626E0,9.209974289E0
3.388712464E1,-3.284149170E-1,3.471686602E0,9.116654396E0
3.390688198E1,-3.619144261E-1,3.469293833E0,9.245866776E0
3.392669495E1,-3.332005441E-1,3.493221998E0,9.162117958E0
3.394642583E1,-2.973082066E-1,3.481257915E0,9.166903496E0
3.396618318E1,-3.499503136E-1,3.482454300E0,9.192028046E0
3.398592188E1,-3.499503136E-1,3.450151205E0,9.241081238E0
3.400568698E1,-3.403790295E-1,3.462115288E0,9.215956688E0
3.402544432E1,-3.188436031E-1,3.503989697E0,9.176474571E0
3.404520719E1,-3.296113312E-1,3.447758436E0,9.238688469E0
3.406495646E1,-3.284149170E-1,3.392723322E0,9.300901413E0
3.408471380E1,-3.475574851E-1,3.404687405E0,9.346364975E0
3.410447583E1,-4.001995921E-1,3.487239838E0,9.302098274E0
3.412421240E1,-3.284149170E-1,3.499203920E0,9.120243073E0
3.414396974E1,-2.575275302E-1,3.507578850E0,8.983553886E0
3.416374115E1,-3.080759048E-1,3.524328709E0,9.013463974E0
3.418351323E1,-3.619144261E-1,3.506382465E0,9.142974854E0
3.420327057E1,-4.217349887E-1,3.472882986E0,9.267401695E0
3.422300464E1,-4.085744619E-1,3.440579891E0,9.315258980E0
3.424275844E1,-3.690928817E-1,3.426223040E0,9.305686951E0
3.426251578E1,-3.212364316E-1,3.450151205E0,9.233902931E0
3.428230323E1,-3.200400174E-1,3.498007536E0,9.147761345E0
3.430202385E1,-3.104687333E-1,3.502793312E0,9.134600639E0
3.432178099E1,-3.164508045E-1,3.533900023E0,9.098408699E0
3.434154932E1,-3.439682424E-1,3.557828188E0,9.132207870E0
3.436131813E1,-3.391826153E-1,3.523132324E0,9.094820023E0
3.438107526E1,-3.355933726E-1,3.512364626E0,9.131011009E0
3.440084115E1,-3.343969584E-1,3.442972660E0,9.203991890E0
3.442058682E1,-3.403790295E-1,3.399901867E0,9.361918449E0
3.444034396E1,-3.858426511E-1,3.386741400E0,9.337990761E0
3.446008656E1,-3.535395563E-1,3.429812193E0,9.219545364E0
3.447983656E1,-3.188436031E-1,3.489632607E0,9.126225471E0
3.449959375E1,-3.391826153E-1,3.509971619E0,9.066105843E0
3.451935849E1,-3.044866920E-1,3.496811152E0,9.150154114E0
3.453911786E1,-3.894318938E-1,3.501596928E0,9.255437851E0
3.455887500E1,-2.925225794E-1,3.440579891E0,9.176474571E0
3.457861990E1,-3.332005441E-1,3.440579891E0,9.106783867E0
3.459842573E1,-3.607180119E-1,3.441776276E0,9.266205788E0
3.461818286E1,-3.367897868E-1,3.445365429E0,9.251849174E0
3.463791547E1,-2.937189937E-1,3.440579891E0,9.170493126E0
3.465767203E1,-3.954139352E-1,3.518346548E0,9.101998329E0
3.467742917E1,-3.463610709E-1,3.478864908E0,9.170493126E0
3.469716958E1,-3.176472187E-1,3.385545015E0,9.355937004E0
3.471698338E1,-3.200400174E-1,3.392723322E0,9.281759262E0
3.473674057E1,-3.786641955E-1,3.502793312E0,9.193224907E0
3.475647266E1,-3.523431420E-1,3.587738514E0,8.905786514E0
3.477621099E1,-3.116651475E-1,3.561417341E0,8.914161682E0
3.479596818E1,-3.667000830E-1,3.451347589E0,9.187242508E0
3.481573219E1,-2.853440940E-1,3.290729284E0,9.206384659E0
3.483547755E1,-3.583251834E-1,3.263211966E0,9.522537231E0
3.485523474E1,-4.707878530E-1,3.262015581E0,9.530911446E0
3.487498250E1,-4.037888348E-1,3.263211966E0,9.551250458E0
3.489477021E1,-3.894318938E-1,3.299104214E0,9.389735222E0
3.491452734E1,-3.822534084E-1,3.426223040E0,9.151350021E0
3.493431792E1,-2.889333367E-1,3.488436222E0,9.040981293E0
3.495402771E1,-2.793620527E-1,3.477668524E0,9.066105843E0
3.497378490E1,-3.320041299E-1,3.521935940E0,9.060123444E0
3.499355417E1,-3.403790295E-1,3.499203920E0,9.038588524E0
3.501330708E1,-3.439682424E-1,3.487239838E0,9.066105843E0
3.503306427E1,-3.858426511E-1,3.464508057E0,9.176474571E0
3.505282188E1,-3.631108403E-1,3.446561813E0,9.230313301E0
3.507258734E1,-3.535395563E-1,3.447758436E0,9.165707588E0
3.509234448E1,-3.750749528E-1,3.450151205E0,9.218349457E0
3.511208354E1,-3.535395563E-1,3.421437263E0,9.177671432E0
3.513186828E1,-2.913261652E-1,3.426223040E0,9.160921097E0
3.515162542E1,-3.140579760E-1,3.431008577E0,9.212367058E0
3.517140010E1,-3.248256743E-1,3.399901867E0,9.278169632E0
3.519113073E1,-3.930211067E-1,3.401098251E0,9.238688469E0
3.521088792E1,-4.671986103E-1,3.427419424E0,9.336793900E0
3.523065521E1,-5.162515044E-1,3.378366470E0,9.416056633E0
3.525072635E1,-3.212364316E-1,3.364009619E0,9.321240425E0
3.527048354E1,-3.104687333E-1,3.413062334E0,9.106783867E0
3.528990599E1,-3.427718580E-1,3.463311672E0,9.122636795E0
3.530966281E1,-3.786641955E-1,3.502793312E0,9.245866776E0
3.532942005E1,-3.858426511E-1,3.466900826E0,9.218349457E0
3.534920885E1,-3.248256743E-1,3.407080412E0,9.274580956E0
3.536892766E1,-4.181457460E-1,3.483650684E0,9.236295700E0
3.538868490E1,-3.415754437E-1,3.499203920E0,9.141778946E0
3.540846609E1,-3.667000830E-1,3.543471336E0,9.080462456E0
3.542821828E1,-3.822534084E-1,3.535096407E0,9.002696037E0
3.544797552E1,-3.714857101E-1,3.440579891E0,9.075676918E0
3.546771042E1,-4.336991012E-1,3.428615808E0,9.248259544E0
3.548747615E1,-4.420739710E-1,3.422633648E0,9.345169067E0
3.550723338E1,-4.301098585E-1,3.433401346E0,9.287740707E0
3.552700990E1,-3.774677813E-1,3.385545015E0,9.261420250E0
3.554678547E1,-3.942175210E-1,3.416651726E0,9.225527763E0
3.556654271E1,-3.858426511E-1,3.426223040E0,9.280562401E0
3.558658307E1,-4.061816335E-1,3.410669565E0,9.310472488E0
3.560602552E1,-3.571287692E-1,3.441776276E0,9.233902931E0
3.562578276E1,-4.037888348E-1,3.440579891E0,9.198010445E0
3.564556203E1,-5.114658475E-1,3.537489176E0,9.192028046E0
3.566530755E1,-3.068794906E-1,3.365206003E0,9.195617676E0
3.568506484E1,-2.889333367E-1,3.380759239E0,9.164510727E0
3.570480995E1,-3.463610709E-1,3.457329512E0,9.154939651E0
3.572456380E1,-3.786641955E-1,3.435794115E0,9.196813583E0
3.574432104E1,-4.564309120E-1,3.448954821E0,9.270991325E0
3.576405365E1,-3.858426511E-1,3.401098251E0,9.235098839E0
3.578382182E1,-3.774677813E-1,3.414258718E0,9.310472488E0
3.580357906E1,-3.320041299E-1,3.428615808E0,9.217152596E0
3.582333917E1,-3.607180119E-1,3.438187122E0,9.202795982E0
3.584307766E1,-3.822534084E-1,3.456133127E0,9.163313866E0
3.586283490E1,-4.229314029E-1,3.413062334E0,9.272188187E0
3.588261979E1,-4.193421602E-1,3.431008577E0,9.279366493E0
3.590238635E1,-3.499503136E-1,3.462115288E0,9.183652878E0
3.592214359E1,-3.236292601E-1,3.469293833E0,9.101998329E0
3.594187396E1,-3.475574851E-1,3.447758436E0,9.174081802E0
3.596165807E1,-3.702892959E-1,3.398705482E0,9.309276581E0
3.598141531E1,-3.822534084E-1,3.421437263E0,9.336793900E0
3.600116453E1,-3.750749528E-1,3.470490217E0,9.257830620E0
3.602090625E1,-3.487538993E-1,3.484847069E0,9.132207870E0
3.604066349E1,-3.320041299E-1,3.482454300E0,9.048159599E0
3.606044302E1,-3.655036688E-1,3.501596928E0,9.039784431E0
3.608015979E1,-3.942175210E-1,3.468097210E0,9.180064201E0
3.609991703E1,-3.726821244E-1,3.439383507E0,9.217152596E0
3.611967844E1,-3.834498227E-1,3.456133127E0,9.218349457E0
3.613946833E1,-3.978067636E-1,3.373580933E0,9.312865257E0
3.615922557E1,-4.157529473E-1,3.361616611E0,9.361918449E0
3.617894854E1,-3.882354796E-1,3.438187122E0,9.250652313E0
3.619874609E1,-3.774677813E-1,3.458526134E0,9.202795982E0
3.621850333E1,-3.367897868E-1,3.482454300E0,9.177671432E0
3.623826260E1,-3.726821244E-1,3.493221998E0,9.182456970E0
3.625799557E1,-3.595215976E-1,3.519542933E0,9.084052086E0
3.627775281E1,-3.690928817E-1,3.519542933E0,9.078069687E0
3.629750672E1,-3.750749528E-1,3.471686602E0,9.144171715E0
3.631727151E1,-4.049852192E-1,3.459722519E0,9.187242508E0
3.633702870E1,-3.894318938E-1,3.429812193E0,9.230313301E0
3.635681552E1,-3.930211067E-1,3.389134169E0,9.269794464E0
3.637656109E1,-3.607180119E-1,3.399901867E0,9.334401131E0
3.639631828E1,-4.325026870E-1,3.560220957E0,9.432806015E0
3.641605781E1,-3.080759048E-1,3.361616611E0,9.422038078E0
3.643581568E1,-4.372883439E-1,3.349652529E0,8.629117012E0
3.645557286E1,-3.643072546E-1,3.689732552E0,9.309276581E0
3.647535911E1,-3.212364316E-1,3.373580933E0,9.033802986E0
3.649508490E1,-4.313062727E-1,3.556631804E0,9.312865257E0
3.651484208E1,-3.523431420E-1,3.402294636E0,9.114261627E0
3.653458385E1,-3.906283081E-1,3.509971619E0,9.225527763E0
3.655433703E1,-3.966103494E-1,3.483650684E0,9.297312737E0
3.657409422E1,-4.301098585E-1,3.438187122E0,9.241081238E0
3.659386354E1,-3.595215976E-1,3.421437263E0,9.320044518E0
3.661362219E1,-3.607180119E-1,3.441776276E0,9.306883812E0
3.663337938E1,-3.750749528E-1,3.514757395E0,9.174081802E0
3.665313974E1,-3.260220885E-1,3.509971619E0,9.026624680E0
3.667287823E1,-3.224328458E-1,3.498007536E0,9.002696037E0
3.669263542E1,-3.834498227E-1,3.515953779E0,9.168100357E0
3.671240911E1,-3.906283081E-1,3.465704441E0,9.205188751E0
3.673216526E1,-4.444667995E-1,3.465704441E0,9.194420815E0
3.675192245E1,-3.930211067E-1,3.427419424E0,9.243474007E0
3.677168219E1,-4.049852192E-1,3.433401346E0,9.327222824E0
3.679144005E1,-3.511467278E-1,3.457329512E0,9.381360054E0
3.681119724E1,-4.313062727E-1,3.436990738E0,9.087641716E0
3.683093245E1,-3.762713671E-1,3.509971619E0,9.187242508E0
3.685071234E1,-3.499503136E-1,3.536292791E0,9.138189316E0
3.687046953E1,-3.451646566E-1,3.482454300E0,9.139386177E0
3.689019505E1,-3.870390654E-1,3.474079370E0,9.050552368E0
3.690996599E1,-4.133601189E-1,3.482454300E0,9.226723671E0
3.692972318E1,-3.846462369E-1,3.465704441E0,9.266205788E0
3.694946349E1,-3.918247223E-1,3.434597731E0,9.336793900E0
3.696922427E1,-3.990031779E-1,3.419044495E0,9.229117393E0
3.698898146E1,-3.846462369E-1,3.439383507E0,9.199206352E0
3.700872911E1,-3.678964674E-1,3.462115288E0,9.165707588E0
3.702848224E1,-3.631108403E-1,3.493221998E0,9.150154114E0
3.704823943E1,-3.595215976E-1,3.447758436E0,9.190832138E0
3.706801578E1,-3.655036688E-1,3.463311672E0,9.150154114E0
3.708775490E1,-3.882354796E-1,3.523132324E0,9.287740707E0
3.710751208E1,-3.750749528E-1,3.374777317E0,9.013463974E0
3.712728443E1,-4.289134443E-1,3.499203920E0,9.251849174E0
3.714705214E1,-3.475574851E-1,3.435794115E0,9.116654396E0
3.716680932E1,-3.655036688E-1,3.474079370E0,9.163313866E0
3.718655510E1,-3.643072546E-1,3.458526134E0,9.104391098E0
3.720631745E1,-3.320041299E-1,3.398705482E0,9.230313301E0
3.722607469E1,-3.714857101E-1,3.320639610E0,9.419645309E0
3.724579396E1,-3.954139352E-1,3.333800077E0,9.520144463E0
3.726555885E1,-3.822534084E-1,3.368795156E0,9.351150513E0
3.728531604E1,-3.224328458E-1,3.395116329E0,9.069695473E0
3.730505714E1,-3.236292601E-1,3.432204962E0,8.993124962E0
3.732482594E1,-3.810569942E-1,3.475275755E0,9.101998329E0
3.734458286E1,-4.348955154E-1,3.472882986E0,9.212367058E0
3.736433984E1,-3.726821244E-1,3.372384310E0,9.192028046E0
3.738409344E1,-3.547359705E-1,3.367598772E0,9.269794464E0
3.740385042E1,-3.750749528E-1,3.326621771E0,9.337990761E0
3.742359964E1,-4.001995921E-1,3.369991541E0,9.364311218E0
3.744336474E1,-3.487538993E-1,3.361616611E0,9.302098274E0
3.746312172E1,-3.499503136E-1,3.419044495E0,9.220742226E0
3.748287911E1,-3.523431420E-1,3.420240879E0,9.172885895E0
3.750263516E1,-3.511467278E-1,3.429812193E0,9.154939651E0
3.752239208E1,-3.714857101E-1,3.458526134E0,9.131011009E0
3.754211984E1,-3.439682424E-1,3.444169044E0,9.151350021E0
3.756190219E1,-3.738785386E-1,3.440579891E0,9.202795982E0
3.758165911E1,-3.822534084E-1,3.450151205E0,9.256634712E0
3.760138828E1,-3.499503136E-1,3.387937784E0,9.208778381E0
3.762118177E1,-4.061816335E-1,3.414258718E0,9.245866776E0
3.764093875E1,-3.846462369E-1,3.415455103E0,9.266205788E0
3.766069214E1,-3.188436031E-1,3.407080412E0,9.205188751E0
3.768073677E1,-3.272185028E-1,3.409473181E0,9.194420815E0
3.770049375E1,-3.607180119E-1,3.439383507E0,9.177671432E0
3.771991115E1,-2.997010350E-1,3.371187925E0,9.207581520E0
3.773968531E1,-4.085744619E-1,3.416651726E0,9.267401695E0
3.775944224E1,-3.846462369E-1,3.401098251E0,9.274580956E0
3.777921625E1,-3.607180119E-1,3.389134169E0,9.195617676E0
3.779893859E1,-3.930211067E-1,3.435794115E0,9.132207870E0
3.781869557E1,-3.990031779E-1,3.435794115E0,9.212367058E0
3.783848172E1,-5.751747489E-1,3.680161238E0,9.297312737E0
3.785822661E1,-1.462612897E-1,3.052344322E0,9.373882294E0
3.787798354E1,-4.241278172E-1,3.367598772E0,9.334401131E0
3.789773156E1,-3.451646566E-1,3.402294636E0,9.215956688E0
3.791750151E1,-3.188436031E-1,3.336193085E0,9.162117958E0
3.793725849E1,-3.080759048E-1,3.353241920E0,9.152546883E0
3.795699094E1,-3.595215976E-1,3.391526937E0,9.248259544E0
3.797677661E1,-4.205385745E-1,3.379562855E0,9.233902931E0
3.799653359E1,-4.432703853E-1,3.404687405E0,9.223134995E0
3.801657922E1,-4.157529473E-1,3.377170086E0,9.263813019E0
3.803601573E1,-3.487538993E-1,3.346063375E0,9.269794464E0
3.805577266E1,-3.595215976E-1,3.392723322E0,9.193224907E0
3.807554464E1,-3.439682424E-1,3.409473181E0,9.186046600E0
3.809529516E1,-3.403790295E-1,3.399901867E0,9.176474571E0
3.811505214E1,-4.133601189E-1,3.415455103E0,9.202795982E0
3.813479094E1,-3.978067636E-1,3.405884027E0,9.250652313E0
3.815458516E1,-3.678964674E-1,3.350848913E0,9.231510162E0
3.817434214E1,-3.607180119E-1,3.358027458E0,9.256634712E0
3.819405953E1,-4.408775866E-1,3.442972660E0,9.238688469E0
3.821380344E1,-3.008974493E-1,3.288336515E0,9.284152031E0
3.823356042E1,-4.719842672E-1,3.462115288E0,9.235098839E0
3.825331781E1,-3.499503136E-1,3.369991541E0,9.199206352E0
3.827309911E1,-3.152543902E-1,3.378366470E0,9.174081802E0
3.829285604E1,-3.343969584E-1,3.399901867E0,9.142974854E0
3.831258578E1,-3.451646566E-1,3.371187925E0,9.219545364E0
3.833238901E1,-3.810569942E-1,3.384348631E0,9.171689034E0
3.835214583E1,-4.636093974E-1,3.358027458E0,9.291330338E0
3.837189771E1,-4.648058116E-1,3.405884027E0,9.355937004E0
3.839164172E1,-3.104687333E-1,3.277568817E0,9.249456406E0
3.841139854E1,-2.503490746E-1,3.271586657E0,9.250652313E0
3.843116016E1,-3.846462369E-1,3.453740358E0,9.152546883E0
3.845090625E1,-3.702892959E-1,3.397509098E0,9.205188751E0
3.847066307E1,-3.714857101E-1,3.326621771E0,9.332008362E0
3.849038698E1,-3.044866920E-1,3.329014540E0,9.326025963E0
3.851015641E1,-3.547359705E-1,3.399901867E0,9.261420250E0
3.852991318E1,-3.726821244E-1,3.387937784E0,9.159725189E0
3.854965453E1,-3.547359705E-1,3.402294636E0,9.091230392E0
3.856941411E1,-4.073780477E-1,3.498007536E0,9.063713074E0
3.858917088E1,-5.488536954E-1,3.627519131E0,9.126225471E0
3.860892141E1,-6.577271223E-1,3.592524052E0,9.146564484E0
3.862868469E1,-4.516452849E-1,3.371187925E0,9.272188187E0
3.864844146E1,-4.313062727E-1,3.396312714E0,9.254241943E0
3.866819417E1,-5.282155871E-1,3.484847069E0,9.345169067E0
3.868794396E1,-4.001995921E-1,3.457329512E0,9.224330902E0
3.870770073E1,-4.241278172E-1,3.407080412E0,9.227920532E0
3.872742849E1,-2.913261652E-1,3.338585854E0,9.109176636E0
3.874718807E1,-1.558325738E-1,3.161516905E0,9.207581520E0
3.876694484E1,-6.131608039E-2,3.126821041E0,9.061320305E0
3.878674031E1,-1.043868884E-1,3.012862921E0,9.279366493E0
3.880644375E1,-7.328019291E-2,2.949453115E0,9.453145027E0
3.882620057E1,-1.594218016E-1,2.975774050E0,9.578767776E0
3.884597375E1,-2.108674943E-1,2.970988512E0,9.518947601E0
3.886572297E1,-2.060818523E-1,3.002095222E0,9.467501640E0
3.888547974E1,-2.431706041E-1,3.004487991E0,9.515357971E0
3.890524917E1,-3.068794906E-1,3.156731367E0,9.480662346E0
3.892499443E1,-2.985046208E-1,3.217748165E0,9.353543282E0
3.894475120E1,-2.635096014E-1,3.210569859E0,9.219545364E0
3.896451927E1,-2.216351926E-1,3.214159012E0,9.156135559E0
3.898424359E1,-2.817548811E-1,3.262015581E0,9.206384659E0
3.900400042E1,-3.391826153E-1,3.285943747E0,9.211171150E0
3.902374875E1,-2.491526604E-1,3.198605776E0,9.278169632E0
3.904351490E1,-2.889333367E-1,3.173480988E0,9.340383530E0
3.906327167E1,-3.080759048E-1,3.168695450E0,9.355937004E0
3.908299724E1,-2.925225794E-1,3.128017426E0,9.405288696E0
3.910277745E1,-2.647060156E-1,3.076272726E0,9.457930565E0
3.912253422E1,-2.793620527E-1,3.124428272E0,9.462716103E0
3.914231245E1,-2.670988142E-1,3.184248686E0,9.386145592E0
3.916204552E1,-2.685943544E-1,3.250051260E0,9.186046600E0
3.918180229E1,-2.539383173E-1,3.252444267E0,9.067302704E0
3.920153646E1,-2.865405083E-1,3.227319479E0,9.133403778E0
3.922133823E1,-3.511467278E-1,3.248854876E0,9.267401695E0
3.924109510E1,-3.332005441E-1,3.206980467E0,9.305686951E0
3.926081120E1,-3.200400174E-1,3.198605776E0,9.355937004E0
3.928056208E1,-2.949153781E-1,3.151945591E0,9.351150513E0
3.930031891E1,-2.757728100E-1,3.098107100E0,9.378967285E0
3.932006318E1,-3.343969584E-1,3.129213810E0,9.363115311E0
3.933981104E1,-2.383849621E-1,3.159124136E0,9.377471924E0
3.935956714E1,-2.383849621E-1,3.233301640E0,9.273384094E0
3.937935042E1,-3.068794906E-1,3.300300598E0,9.127422333E0
3.939910672E1,-2.973082066E-1,3.223730326E0,9.139386177E0
3.941886286E1,-2.745763958E-1,3.278765202E0,9.219545364E0
3.943859771E1,-3.020938635E-1,3.245265722E0,9.278169632E0
3.945838719E1,-3.116651475E-1,3.204587698E0,9.320044518E0
3.947814328E1,-3.116651475E-1,3.166302681E0,9.334401131E0
3.949786214E1,-4.325026870E-1,3.110071182E0,9.273384094E0
3.951762219E1,-4.612165689E-1,3.167499065E0,9.434001923E0
3.953737828E1,-3.451646566E-1,3.217748165E0,9.257830620E0
3.955711302E1,-4.037888348E-1,3.240479946E0,9.226723671E0
3.957692135E1,-3.690928817E-1,3.379562855E0,9.219545364E0
3.959667745E1,-2.817548811E-1,3.167499065E0,9.272188187E0
3.961641172E1,-2.539383173E-1,3.135195971E0,9.376275063E0
3.963615740E1,-4.336991012E-1,3.089732170E0,9.552447319E0
3.965591354E1,-3.188436031E-1,3.087339401E0,9.544072151E0
3.967567807E1,-2.587239444E-1,3.143570662E0,9.282955170E0
3.969544281E1,-2.395813614E-1,3.216551781E0,9.093623161E0
3.971519891E1,-1.917249113E-1,3.208176851E0,9.070891380E0
3.973492484E1,-2.721835673E-1,3.174677372E0,9.300901413E0
3.975467943E1,-4.193421602E-1,3.209373474E0,9.413662910E0
3.977443557E1,-4.552344978E-1,3.180659533E0,9.419645309E0
3.979422078E1,-4.217349887E-1,3.210569859E0,9.334401131E0
3.981397901E1,-3.846462369E-1,3.195016384E0,9.213563919E0
3.983373516E1,-3.667000830E-1,3.212962627E0,9.217152596E0
3.985347766E1,-4.372883439E-1,3.259622574E0,9.300901413E0
3.987324318E1,-4.157529473E-1,3.157927752E0,9.272188187E0
3.989299932E1,-3.355933726E-1,3.174677372E0,9.270991325E0
3.991275495E1,-3.212364316E-1,3.135195971E0,9.342776299E0
3.993252661E1,-3.140579760E-1,3.138785124E0,9.365508080E0
3.995228271E1,-3.320041299E-1,3.172284603E0,9.332008362E0
3.997199635E1,-3.439682424E-1,3.218944550E0,9.294919968E0
3.999177088E1,-3.439682424E-1,3.211766243E0,9.365508080E0
4.001152698E1,-3.308077157E-1,3.197409153E0,9.305686951E0
4.003131495E1,-3.523431420E-1,3.206980467E0,9.255437851E0
4.005105323E1,-3.583251834E-1,3.229712248E0,9.265008926E0
4.007080932E1,-3.798605800E-1,3.211766243E0,9.311669350E0
4.009054880E1,-3.690928817E-1,3.175873756E0,9.257830620E0
4.011031370E1,-3.774677813E-1,3.206980467E0,9.337990761E0
4.013006979E1,-3.355933726E-1,3.192623615E0,9.314062119E0
4.014981088E1,-2.949153781E-1,3.148356438E0,9.263813019E0
4.016955838E1,-3.343969584E-1,3.200998545E0,9.267401695E0
4.018931448E1,-3.248256743E-1,3.148356438E0,9.320044518E0
4.020906641E1,-3.032902777E-1,3.144767046E0,9.398110390E0
4.022882604E1,-3.296113312E-1,3.196212769E0,9.340383530E0
4.024858214E1,-3.714857101E-1,3.230908871E0,9.285347939E0
4.026836651E1,-4.073780477E-1,3.202194929E0,9.218349457E0
4.028809177E1,-3.248256743E-1,3.128017426E0,9.219545364E0
4.030784786E1,-3.212364316E-1,3.151945591E0,9.323633194E0
4.032760083E1,-3.475574851E-1,3.169891834E0,9.340383530E0
4.034735557E1,-3.643072546E-1,3.089732170E0,9.411270142E0
4.036711161E1,-3.164508045E-1,3.010469913E0,9.478269577E0
4.038688870E1,-3.786641955E-1,3.083750248E0,9.502198219E0
4.040665698E1,-4.037888348E-1,3.161516905E0,9.382556915E0
4.042641302E1,-2.889333367E-1,3.165106058E0,9.243474007E0
4.044617833E1,-2.659024298E-1,3.130410194E0,9.128618240E0
4.046589620E1,-3.379862010E-1,3.187838078E0,9.142974854E0
4.048565229E1,-3.822534084E-1,3.147160053E0,9.270991325E0
4.050541198E1,-4.169493318E-1,3.119642496E0,9.367900848E0
4.052517917E1,-4.049852192E-1,3.069094181E0,9.423234940E0
4.054493526E1,-4.169493318E-1,3.042773008E0,9.455537796E0
4.056468042E1,-3.487538993E-1,3.040380239E0,9.412467003E0
4.058443693E1,-3.379862010E-1,3.058326483E0,9.333204269E0
4.060419297E1,-3.355933726E-1,3.101696253E0,9.322437286E0
4.062393188E1,-4.013960063E-1,3.153141975E0,9.353543282E0
4.064369823E1,-4.073780477E-1,3.167499065E0,9.286544800E0
4.066345427E1,-3.511467278E-1,3.132802963E0,9.270991325E0
4.068319214E1,-3.379862010E-1,3.117249727E0,9.278169632E0
4.070297661E1,-3.535395563E-1,3.112463951E0,9.327222824E0
4.072273271E1,-3.726821244E-1,3.093321562E0,9.324830055E0
4.074249458E1,-3.619144261E-1,3.110071182E0,9.375079155E0
4.076223547E1,-4.205385745E-1,3.088535786E0,9.407681465E0
4.078199151E1,-3.643072546E-1,3.106482029E0,9.371489525E0
4.080175641E1,-3.511467278E-1,3.110071182E0,9.347561836E0
4.082151818E1,-3.655036688E-1,3.096910715E0,9.352347374E0
